subject,block,trial,mu1,mu2,choice,reward,RT,state,V_t,posterior_std_0,posterior_std_1,poster_mean_0,poster_mean_1,TU,RU
1,1,1,-1,-2,0,0,1655,0,0.0,5.0,5.0,0.0,0.0,3.1622776601683795,0.0
1,1,2,-1,-2,1,-4,652,1,0.0,3.333333333333334,5.0,0.0,0.0,2.886751345948129,-0.410326119149236
1,1,3,-1,-2,0,-1,479,2,1.3333333333333333,3.333333333333334,3.333333333333334,0.0,-1.3333333333333333,2.5819888974716116,0.0
1,1,4,-1,-2,0,-2,839,3,1.0833333333333333,2.5000000000000004,3.333333333333334,-0.25000000000000006,-1.3333333333333333,2.41522945769824,-0.24460302826636404
1,1,5,-1,-2,1,-1,424,4,0.7333333333333332,2.0,3.333333333333334,-0.6000000000000001,-1.3333333333333333,2.3094010767585034,-0.41152829597745866
1,1,6,-1,-2,0,0,426,5,0.6499999999999999,2.0,2.5000000000000004,-0.6000000000000001,-1.25,2.1213203435596424,-0.16692526771109462
1,1,7,-1,-2,0,-3,407,6,0.7499999999999999,1.6666666666666667,2.5000000000000004,-0.5000000000000001,-1.25,2.041241452319315,-0.29014438134838416
1,1,8,-1,-2,1,-1,686,7,0.3928571428571427,1.4285714285714286,2.5000000000000004,-0.8571428571428573,-1.25,1.9820624179302297,-0.3859102207497962
1,1,9,-1,-2,0,-1,391,8,0.34285714285714264,1.4285714285714286,2.0,-0.8571428571428573,-1.2,1.851640199545103,-0.21898495303870158
1,1,10,-1,-2,0,-1,350,9,0.32499999999999984,1.25,2.0,-0.8750000000000001,-1.2,1.8027756377319946,-0.29617957362320024
1,2,1,0,-10,0,0,670,10,0.0,5.0,5.0,0.0,0.0,3.1622776601683795,0.0
1,2,2,0,-10,1,-8,375,11,0.0,3.333333333333334,5.0,0.0,0.0,2.886751345948129,-0.410326119149236
1,2,3,0,-10,0,-2,367,12,2.6666666666666665,3.333333333333334,3.333333333333334,0.0,-2.6666666666666665,2.5819888974716116,0.0
1,2,4,0,-10,0,0,415,13,2.1666666666666665,2.5000000000000004,3.333333333333334,-0.5000000000000001,-2.6666666666666665,2.41522945769824,-0.24460302826636404
1,2,5,0,-10,0,0,407,14,2.2666666666666666,2.0,3.333333333333334,-0.4000000000000001,-2.6666666666666665,2.3094010767585034,-0.41152829597745866
1,2,6,0,-10,0,-1,368,15,2.333333333333333,1.6666666666666667,3.333333333333334,-0.33333333333333337,-2.6666666666666665,2.23606797749979,-0.5347474096147482
1,2,7,0,-10,1,-11,471,16,2.238095238095238,1.4285714285714286,3.333333333333334,-0.4285714285714286,-2.6666666666666665,2.182178902359924,-0.6305132490161602
1,2,8,0,-10,0,1,335,17,4.321428571428571,1.4285714285714286,2.5000000000000004,-0.4285714285714286,-4.75,1.9820624179302297,-0.3859102207497962
1,2,9,0,-10,0,0,351,18,4.5,1.25,2.5000000000000004,-0.25,-4.75,1.9364916731037085,-0.46310484133429486
1,2,10,0,-10,1,-10,367,19,4.527777777777778,1.1111111111111112,2.5000000000000004,-0.2222222222222222,-4.75,1.90029237516523,-0.5270462766947299
1,3,1,-5,3,0,-5,530,20,0.0,5.0,5.0,0.0,0.0,3.1622776601683795,0.0
1,3,2,-5,3,1,2,302,21,-1.6666666666666665,3.333333333333334,5.0,-1.6666666666666665,0.0,2.886751345948129,-0.410326119149236
1,3,3,-5,3,1,2,375,22,-2.333333333333333,3.333333333333334,3.333333333333334,-1.6666666666666665,0.6666666666666666,2.5819888974716116,0.0
1,3,4,-5,3,1,3,360,23,-2.6666666666666665,3.333333333333334,2.5000000000000004,-1.6666666666666665,1.0,2.41522945769824,0.24460302826636404
1,3,5,-5,3,1,2,319,24,-3.0666666666666664,3.333333333333334,2.0,-1.6666666666666665,1.4000000000000001,2.3094010767585034,0.41152829597745866
1,3,6,-5,3,1,1,335,25,-3.1666666666666665,3.333333333333334,1.6666666666666667,-1.6666666666666665,1.5,2.23606797749979,0.5347474096147482
1,3,7,-5,3,1,2,385,26,-3.095238095238095,3.333333333333334,1.4285714285714286,-1.6666666666666665,1.4285714285714286,2.182178902359924,0.6305132490161602
1,3,8,-5,3,1,4,350,27,-3.1666666666666665,3.333333333333334,1.25,-1.6666666666666665,1.5,2.1408720964441885,0.7077078696006589
1,3,9,-5,3,1,3,367,28,-3.444444444444444,3.333333333333334,1.1111111111111112,-1.6666666666666665,1.7777777777777777,2.1081851067789197,0.771649304961094
1,3,10,-5,3,1,4,391,29,-3.5666666666666664,3.333333333333334,1.0,-1.6666666666666665,1.9,2.081665999466133,0.8257418583505538
1,4,1,-2,1,1,1,683,30,0.0,5.0,5.0,0.0,0.0,3.1622776601683795,0.0
1,4,2,-2,1,1,3,319,31,-0.3333333333333333,5.0,3.333333333333334,0.0,0.3333333333333333,2.886751345948129,0.410326119149236
1,4,3,-2,1,0,-2,502,32,-1.0,5.0,2.5000000000000004,0.0,1.0,2.7386127875258306,0.6549291474156
1,4,4,-2,1,1,3,543,33,-1.6666666666666665,3.333333333333334,2.5000000000000004,-0.6666666666666666,1.0,2.41522945769824,0.24460302826636404
1,4,5,-2,1,1,1,327,34,-2.066666666666667,3.333333333333334,2.0,-0.6666666666666666,1.4000000000000001,2.3094010767585034,0.41152829597745866
1,4,6,-2,1,1,1,342,35,-2.0,3.333333333333334,1.6666666666666667,-0.6666666666666666,1.3333333333333335,2.23606797749979,0.5347474096147482
1,4,7,-2,1,1,0,342,36,-1.9523809523809526,3.333333333333334,1.4285714285714286,-0.6666666666666666,1.2857142857142858,2.182178902359924,0.6305132490161602
1,4,8,-2,1,1,1,383,37,-1.7916666666666665,3.333333333333334,1.25,-0.6666666666666666,1.125,2.1408720964441885,0.7077078696006589
1,4,9,-2,1,1,2,424,38,-1.7777777777777777,3.333333333333334,1.1111111111111112,-0.6666666666666666,1.1111111111111112,2.1081851067789197,0.771649304961094
1,4,10,-2,1,1,1,390,39,-1.8666666666666667,3.333333333333334,1.0,-0.6666666666666666,1.2,2.081665999466133,0.8257418583505538
1,5,1,-2,-11,1,-11,504,40,0.0,5.0,5.0,0.0,0.0,3.1622776601683795,0.0
1,5,2,-2,-11,0,-2,415,41,3.6666666666666665,5.0,3.333333333333334,0.0,-3.6666666666666665,2.886751345948129,0.410326119149236
1,5,3,-2,-11,0,-3,596,42,3.0,3.333333333333334,3.333333333333334,-0.6666666666666666,-3.6666666666666665,2.5819888974716116,0.0
1,5,4,-2,-11,0,-2,485,43,2.4166666666666665,2.5000000000000004,3.333333333333334,-1.25,-3.6666666666666665,2.41522945769824,-0.24460302826636404
1,5,5,-2,-11,0,-2,493,44,2.2666666666666666,2.0,3.333333333333334,-1.4,-3.6666666666666665,2.3094010767585034,-0.41152829597745866
1,5,6,-2,-11,0,-3,399,45,2.1666666666666665,1.6666666666666667,3.333333333333334,-1.5,-3.6666666666666665,2.23606797749979,-0.5347474096147482
1,5,7,-2,-11,0,-1,392,46,1.952380952380952,1.4285714285714286,3.333333333333334,-1.7142857142857144,-3.6666666666666665,2.182178902359924,-0.6305132490161602
1,5,8,-2,-11,0,-6,424,47,2.0416666666666665,1.25,3.333333333333334,-1.625,-3.6666666666666665,2.1408720964441885,-0.7077078696006589
1,5,9,-2,-11,1,-10,503,48,1.5555555555555554,1.1111111111111112,3.333333333333334,-2.111111111111111,-3.6666666666666665,2.1081851067789197,-0.771649304961094
1,5,10,-2,-11,0,-3,351,49,3.138888888888889,1.1111111111111112,2.5000000000000004,-2.111111111111111,-5.25,1.90029237516523,-0.5270462766947299
1,6,1,-5,-9,0,-6,656,50,0.0,5.0,5.0,0.0,0.0,3.1622776601683795,0.0
1,6,2,-5,-9,1,-9,365,51,-2.0,3.333333333333334,5.0,-2.0,0.0,2.886751345948129,-0.410326119149236
1,6,3,-5,-9,0,-5,519,52,1.0,3.333333333333334,3.333333333333334,-2.0,-3.0,2.5819888974716116,0.0
1,6,4,-5,-9,0,-5,342,53,0.25,2.5000000000000004,3.333333333333334,-2.75,-3.0,2.41522945769824,-0.24460302826636404
1,6,5,-5,-9,0,-5,319,54,-0.20000000000000018,2.0,3.333333333333334,-3.2,-3.0,2.3094010767585034,-0.41152829597745866
1,6,6,-5,-9,0,-4,423,55,-0.5,1.6666666666666667,3.333333333333334,-3.5,-3.0,2.23606797749979,-0.5347474096147482
1,6,7,-5,-9,0,-5,399,56,-0.5714285714285716,1.4285714285714286,3.333333333333334,-3.5714285714285716,-3.0,2.182178902359924,-0.6305132490161602
1,6,8,-5,-9,0,-6,405,57,-0.75,1.25,3.333333333333334,-3.75,-3.0,2.1408720964441885,-0.7077078696006589
1,6,9,-5,-9,0,-4,359,58,-1.0,1.1111111111111112,3.333333333333334,-4.0,-3.0,2.1081851067789197,-0.771649304961094
1,6,10,-5,-9,0,-3,375,59,-1.0,1.0,3.333333333333334,-4.0,-3.0,2.081665999466133,-0.8257418583505538
1,7,1,1,0,0,1,774,60,0.0,5.0,5.0,0.0,0.0,3.1622776601683795,0.0
1,7,2,1,0,0,-1,366,61,0.3333333333333333,3.333333333333334,5.0,0.3333333333333333,0.0,2.886751345948129,-0.410326119149236
1,7,3,1,0,1,0,340,62,-5.551115123125783e-17,2.5000000000000004,5.0,-5.551115123125783e-17,0.0,2.7386127875258306,-0.6549291474156
1,7,4,1,0,1,0,335,63,-5.551115123125783e-17,2.5000000000000004,3.333333333333334,-5.551115123125783e-17,0.0,2.41522945769824,-0.24460302826636404
1,7,5,1,0,1,-1,439,64,-5.551115123125783e-17,2.5000000000000004,2.5000000000000004,-5.551115123125783e-17,0.0,2.23606797749979,0.0
1,7,6,1,0,0,-1,368,65,0.19999999999999998,2.5000000000000004,2.0,-5.551115123125783e-17,-0.20000000000000004,2.1213203435596424,0.16692526771109462
1,7,7,1,0,0,3,463,66,-5.551115123125783e-17,2.0,2.0,-0.2000000000000001,-0.20000000000000004,2.0,0.0
1,7,8,1,0,0,0,343,67,0.5333333333333333,1.6666666666666667,2.0,0.33333333333333326,-0.20000000000000004,1.9148542155126762,-0.12321911363728955
1,7,9,1,0,0,2,367,68,0.48571428571428565,1.4285714285714286,2.0,0.28571428571428564,-0.20000000000000004,1.851640199545103,-0.21898495303870158
1,7,10,1,0,0,-1,359,69,0.7,1.25,2.0,0.49999999999999994,-0.20000000000000004,1.8027756377319946,-0.29617957362320024
1,8,1,1,-7,0,1,464,70,0.0,5.0,5.0,0.0,0.0,3.1622776601683795,0.0
1,8,2,1,-7,0,1,396,71,0.3333333333333333,3.333333333333334,5.0,0.3333333333333333,0.0,2.886751345948129,-0.410326119149236
1,8,3,1,-7,0,-1,334,72,0.5,2.5000000000000004,5.0,0.5,0.0,2.7386127875258306,-0.6549291474156
1,8,4,1,-7,0,4,351,73,0.19999999999999996,2.0,5.0,0.19999999999999996,0.0,2.6457513110645907,-0.8218544151266947
1,8,5,1,-7,0,2,383,74,0.8333333333333333,1.6666666666666667,5.0,0.8333333333333333,0.0,2.581988897471611,-0.9450735287639842
1,8,6,1,-7,0,-1,360,75,1.0,1.4285714285714286,5.0,1.0,0.0,2.53546276418555,-1.0408393681653962
1,8,7,1,-7,0,0,343,76,0.75,1.25,5.0,0.75,0.0,2.5,-1.118033988749895
1,8,8,1,-7,0,0,455,77,0.6666666666666666,1.1111111111111112,5.0,0.6666666666666666,0.0,2.4720661623652207,-1.18197542411033
1,8,9,1,-7,0,2,415,78,0.6,1.0,5.0,0.6,0.0,2.449489742783178,-1.2360679774997898
1,8,10,1,-7,0,1,415,79,0.7272727272727273,0.9090909090909091,5.0,0.7272727272727273,0.0,2.4308621740219887,-1.2826053882541975
1,9,1,9,-4,0,8,474,80,0.0,5.0,5.0,0.0,0.0,3.1622776601683795,0.0
1,9,2,9,-4,0,8,407,81,2.6666666666666665,3.333333333333334,5.0,2.6666666666666665,0.0,2.886751345948129,-0.410326119149236
1,9,3,9,-4,0,8,510,82,4.0,2.5000000000000004,5.0,4.0,0.0,2.7386127875258306,-0.6549291474156
1,9,4,9,-4,1,-4,320,83,4.8,2.0,5.0,4.8,0.0,2.6457513110645907,-0.8218544151266947
1,9,5,9,-4,0,7,351,84,6.133333333333333,2.0,3.333333333333334,4.8,-1.3333333333333333,2.3094010767585034,-0.41152829597745866
1,9,6,9,-4,0,11,352,85,6.499999999999999,1.6666666666666667,3.333333333333334,5.166666666666666,-1.3333333333333333,2.23606797749979,-0.5347474096147482
1,9,7,9,-4,0,6,376,86,7.333333333333333,1.4285714285714286,3.333333333333334,6.0,-1.3333333333333333,2.182178902359924,-0.6305132490161602
1,9,8,9,-4,0,8,535,87,7.333333333333333,1.25,3.333333333333334,6.0,-1.3333333333333333,2.1408720964441885,-0.7077078696006589
1,9,9,9,-4,0,9,423,88,7.555555555555555,1.1111111111111112,3.333333333333334,6.222222222222222,-1.3333333333333333,2.1081851067789197,-0.771649304961094
1,9,10,9,-4,0,10,615,89,7.833333333333333,1.0,3.333333333333334,6.5,-1.3333333333333333,2.081665999466133,-0.8257418583505538
1,10,1,-8,-8,0,-9,961,90,0.0,5.0,5.0,0.0,0.0,3.1622776601683795,0.0
1,10,2,-8,-8,1,-10,423,91,-3.0,3.333333333333334,5.0,-3.0,0.0,2.886751345948129,-0.410326119149236
1,10,3,-8,-8,0,-8,382,92,0.33333333333333304,3.333333333333334,3.333333333333334,-3.0,-3.333333333333333,2.5819888974716116,0.0
1,10,4,-8,-8,0,-9,318,93,-0.916666666666667,2.5000000000000004,3.333333333333334,-4.25,-3.333333333333333,2.41522945769824,-0.24460302826636404
1,10,5,-8,-8,0,-9,367,94,-1.8666666666666671,2.0,3.333333333333334,-5.2,-3.333333333333333,2.3094010767585034,-0.41152829597745866
1,10,6,-8,-8,0,-8,511,95,-2.500000000000001,1.6666666666666667,3.333333333333334,-5.833333333333334,-3.333333333333333,2.23606797749979,-0.5347474096147482
1,10,7,-8,-8,0,-9,383,96,-2.80952380952381,1.4285714285714286,3.333333333333334,-6.142857142857143,-3.333333333333333,2.182178902359924,-0.6305132490161602
1,10,8,-8,-8,0,-9,359,97,-3.166666666666667,1.25,3.333333333333334,-6.5,-3.333333333333333,2.1408720964441885,-0.7077078696006589
1,10,9,-8,-8,0,-9,342,98,-3.4444444444444446,1.1111111111111112,3.333333333333334,-6.777777777777778,-3.333333333333333,2.1081851067789197,-0.771649304961094
1,10,10,-8,-8,0,-7,366,99,-3.666666666666667,1.0,3.333333333333334,-7.0,-3.333333333333333,2.081665999466133,-0.8257418583505538
1,11,1,11,16,0,10,554,100,0.0,5.0,5.0,0.0,0.0,3.1622776601683795,0.0
1,11,2,11,16,0,10,397,101,3.333333333333333,3.333333333333334,5.0,3.333333333333333,0.0,2.886751345948129,-0.410326119149236
1,11,3,11,16,0,12,359,102,5.0,2.5000000000000004,5.0,5.0,0.0,2.7386127875258306,-0.6549291474156
1,11,4,11,16,0,11,377,103,6.4,2.0,5.0,6.4,0.0,2.6457513110645907,-0.8218544151266947
1,11,5,11,16,1,17,359,104,7.166666666666667,1.6666666666666667,5.0,7.166666666666667,0.0,2.581988897471611,-0.9450735287639842
1,11,6,11,16,1,16,406,105,1.5000000000000009,1.6666666666666667,3.333333333333334,7.166666666666667,5.666666666666666,2.23606797749979,-0.5347474096147482
1,11,7,11,16,1,18,310,106,-1.083333333333333,1.6666666666666667,2.5000000000000004,7.166666666666667,8.25,2.041241452319315,-0.29014438134838416
1,11,8,11,16,1,16,367,107,-3.033333333333334,1.6666666666666667,2.0,7.166666666666667,10.200000000000001,1.9148542155126762,-0.12321911363728955
1,11,9,11,16,1,17,352,108,-4.000000000000001,1.6666666666666667,1.6666666666666667,7.166666666666667,11.166666666666668,1.8257418583505538,0.0
1,11,10,11,16,1,16,336,109,-4.833333333333335,1.6666666666666667,1.4285714285714286,7.166666666666667,12.000000000000002,1.7593288763724921,0.09576583940141203
1,12,1,-11,4,1,5,734,110,0.0,5.0,5.0,0.0,0.0,3.1622776601683795,0.0
1,12,2,-11,4,0,-12,343,111,-1.6666666666666665,5.0,3.333333333333334,0.0,1.6666666666666665,2.886751345948129,0.410326119149236
1,12,3,-11,4,1,4,343,112,-5.666666666666666,3.333333333333334,3.333333333333334,-4.0,1.6666666666666665,2.5819888974716116,0.0
1,12,4,-11,4,1,4,383,113,-6.25,3.333333333333334,2.5000000000000004,-4.0,2.25,2.41522945769824,0.24460302826636404
1,12,5,-11,4,1,3,375,114,-6.6,3.333333333333334,2.0,-4.0,2.6,2.3094010767585034,0.41152829597745866
1,12,6,-11,4,1,5,358,115,-6.666666666666667,3.333333333333334,1.6666666666666667,-4.0,2.666666666666667,2.23606797749979,0.5347474096147482
1,12,7,-11,4,1,4,359,116,-7.0,3.333333333333334,1.4285714285714286,-4.0,3.0000000000000004,2.182178902359924,0.6305132490161602
1,12,8,-11,4,1,5,351,117,-7.125,3.333333333333334,1.25,-4.0,3.1250000000000004,2.1408720964441885,0.7077078696006589
1,12,9,-11,4,1,4,352,118,-7.333333333333334,3.333333333333334,1.1111111111111112,-4.0,3.333333333333334,2.1081851067789197,0.771649304961094
1,12,10,-11,4,1,3,355,119,-7.4,3.333333333333334,1.0,-4.0,3.4000000000000004,2.081665999466133,0.8257418583505538
1,13,1,-3,4,1,5,544,120,0.0,5.0,5.0,0.0,0.0,3.1622776601683795,0.0
1,13,2,-3,4,0,-2,342,121,-1.6666666666666665,5.0,3.333333333333334,0.0,1.6666666666666665,2.886751345948129,0.410326119149236
1,13,3,-3,4,1,3,327,122,-2.333333333333333,3.333333333333334,3.333333333333334,-0.6666666666666666,1.6666666666666665,2.5819888974716116,0.0
1,13,4,-3,4,1,5,351,123,-2.6666666666666665,3.333333333333334,2.5000000000000004,-0.6666666666666666,2.0,2.41522945769824,0.24460302826636404
1,13,5,-3,4,1,2,383,124,-3.2666666666666666,3.333333333333334,2.0,-0.6666666666666666,2.6,2.3094010767585034,0.41152829597745866
1,13,6,-3,4,1,5,383,125,-3.1666666666666665,3.333333333333334,1.6666666666666667,-0.6666666666666666,2.5,2.23606797749979,0.5347474096147482
1,13,7,-3,4,1,4,406,126,-3.5238095238095237,3.333333333333334,1.4285714285714286,-0.6666666666666666,2.857142857142857,2.182178902359924,0.6305132490161602
1,13,8,-3,4,1,3,335,127,-3.6666666666666665,3.333333333333334,1.25,-0.6666666666666666,3.0,2.1408720964441885,0.7077078696006589
1,13,9,-3,4,1,4,367,128,-3.6666666666666665,3.333333333333334,1.1111111111111112,-0.6666666666666666,3.0,2.1081851067789197,0.771649304961094
1,13,10,-3,4,1,4,367,129,-3.7666666666666666,3.333333333333334,1.0,-0.6666666666666666,3.1,2.081665999466133,0.8257418583505538
1,14,1,-6,-6,1,-5,543,130,0.0,5.0,5.0,0.0,0.0,3.1622776601683795,0.0
1,14,2,-6,-6,0,-6,344,131,1.6666666666666665,5.0,3.333333333333334,0.0,-1.6666666666666665,2.886751345948129,0.410326119149236
1,14,3,-6,-6,1,-5,375,132,-0.3333333333333335,3.333333333333334,3.333333333333334,-2.0,-1.6666666666666665,2.5819888974716116,0.0
1,14,4,-6,-6,0,-7,356,133,0.5,3.333333333333334,2.5000000000000004,-2.0,-2.5,2.41522945769824,0.24460302826636404
1,14,5,-6,-6,0,-6,374,134,-0.75,2.5000000000000004,2.5000000000000004,-3.25,-2.5,2.23606797749979,0.0
1,14,6,-6,-6,0,-4,374,135,-1.3000000000000003,2.0,2.5000000000000004,-3.8000000000000003,-2.5,2.1213203435596424,-0.16692526771109462
1,14,7,-6,-6,1,-7,503,136,-1.3333333333333335,1.6666666666666667,2.5000000000000004,-3.8333333333333335,-2.5,2.041241452319315,-0.29014438134838416
1,14,8,-6,-6,0,-6,431,137,-0.4333333333333331,1.6666666666666667,2.0,-3.8333333333333335,-3.4000000000000004,1.9148542155126762,-0.12321911363728955
1,14,9,-6,-6,0,-7,383,138,-0.7428571428571429,1.4285714285714286,2.0,-4.142857142857143,-3.4000000000000004,1.851640199545103,-0.21898495303870158
1,14,10,-6,-6,0,-7,367,139,-1.0999999999999996,1.25,2.0,-4.5,-3.4000000000000004,1.8027756377319946,-0.29617957362320024
1,15,1,-16,-9,0,-19,743,140,0.0,5.0,5.0,0.0,0.0,3.1622776601683795,0.0
1,15,2,-16,-9,1,-9,327,141,-6.333333333333333,3.333333333333334,5.0,-6.333333333333333,0.0,2.886751345948129,-0.410326119149236
1,15,3,-16,-9,1,-8,325,142,-3.333333333333333,3.333333333333334,3.333333333333334,-6.333333333333333,-3.0,2.5819888974716116,0.0
1,15,4,-16,-9,1,-8,334,143,-2.083333333333333,3.333333333333334,2.5000000000000004,-6.333333333333333,-4.25,2.41522945769824,0.24460302826636404
1,15,5,-16,-9,1,-8,319,144,-1.333333333333333,3.333333333333334,2.0,-6.333333333333333,-5.0,2.3094010767585034,0.41152829597745866
1,15,6,-16,-9,1,-10,488,145,-0.833333333333333,3.333333333333334,1.6666666666666667,-6.333333333333333,-5.5,2.23606797749979,0.5347474096147482
1,15,7,-16,-9,0,-16,688,146,-0.1904761904761898,3.333333333333334,1.4285714285714286,-6.333333333333333,-6.142857142857143,2.182178902359924,0.6305132490161602
1,15,8,-16,-9,1,-9,335,147,-2.6071428571428568,2.5000000000000004,1.4285714285714286,-8.75,-6.142857142857143,1.9820624179302297,0.3859102207497962
1,15,9,-16,-9,1,-9,358,148,-2.25,2.5000000000000004,1.25,-8.75,-6.5,1.9364916731037085,0.46310484133429486
1,15,10,-16,-9,1,-8,904,149,-1.9722222222222223,2.5000000000000004,1.1111111111111112,-8.75,-6.777777777777778,1.90029237516523,0.5270462766947299
1,16,1,-7,8,1,9,454,150,0.0,5.0,5.0,0.0,0.0,3.1622776601683795,0.0
1,16,2,-7,8,0,-8,390,151,-3.0,5.0,3.333333333333334,0.0,3.0,2.886751345948129,0.410326119149236
1,16,3,-7,8,1,8,319,152,-5.666666666666666,3.333333333333334,3.333333333333334,-2.6666666666666665,3.0,2.5819888974716116,0.0
1,16,4,-7,8,1,10,351,153,-6.916666666666666,3.333333333333334,2.5000000000000004,-2.6666666666666665,4.25,2.41522945769824,0.24460302826636404
1,16,5,-7,8,1,9,359,154,-8.066666666666666,3.333333333333334,2.0,-2.6666666666666665,5.4,2.3094010767585034,0.41152829597745866
1,16,6,-7,8,1,9,320,155,-8.666666666666666,3.333333333333334,1.6666666666666667,-2.6666666666666665,6.0,2.23606797749979,0.5347474096147482
1,16,7,-7,8,1,9,369,156,-9.095238095238095,3.333333333333334,1.4285714285714286,-2.6666666666666665,6.428571428571429,2.182178902359924,0.6305132490161602
1,16,8,-7,8,1,8,382,157,-9.416666666666666,3.333333333333334,1.25,-2.6666666666666665,6.75,2.1408720964441885,0.7077078696006589
1,16,9,-7,8,1,7,383,158,-9.555555555555555,3.333333333333334,1.1111111111111112,-2.6666666666666665,6.888888888888889,2.1081851067789197,0.771649304961094
1,16,10,-7,8,1,7,423,159,-9.566666666666666,3.333333333333334,1.0,-2.6666666666666665,6.9,2.081665999466133,0.8257418583505538
1,17,1,15,2,1,2,520,160,0.0,5.0,5.0,0.0,0.0,3.1622776601683795,0.0
1,17,2,15,2,0,16,334,161,-0.6666666666666666,5.0,3.333333333333334,0.0,0.6666666666666666,2.886751345948129,0.410326119149236
1,17,3,15,2,0,15,343,162,4.666666666666666,3.333333333333334,3.333333333333334,5.333333333333333,0.6666666666666666,2.5819888974716116,0.0
1,17,4,15,2,0,15,335,163,7.083333333333333,2.5000000000000004,3.333333333333334,7.75,0.6666666666666666,2.41522945769824,-0.24460302826636404
1,17,5,15,2,0,16,344,164,8.533333333333333,2.0,3.333333333333334,9.2,0.6666666666666666,2.3094010767585034,-0.41152829597745866
1,17,6,15,2,0,16,335,165,9.666666666666666,1.6666666666666667,3.333333333333334,10.333333333333332,0.6666666666666666,2.23606797749979,-0.5347474096147482
1,17,7,15,2,0,14,352,166,10.476190476190476,1.4285714285714286,3.333333333333334,11.142857142857142,0.6666666666666666,2.182178902359924,-0.6305132490161602
1,17,8,15,2,0,15,383,167,10.833333333333334,1.25,3.333333333333334,11.5,0.6666666666666666,2.1408720964441885,-0.7077078696006589
1,17,9,15,2,0,15,343,168,11.222222222222223,1.1111111111111112,3.333333333333334,11.88888888888889,0.6666666666666666,2.1081851067789197,-0.771649304961094
1,17,10,15,2,0,14,327,169,11.533333333333335,1.0,3.333333333333334,12.200000000000001,0.6666666666666666,2.081665999466133,-0.8257418583505538
1,18,1,-6,-4,1,-3,491,170,0.0,5.0,5.0,0.0,0.0,3.1622776601683795,0.0
1,18,2,-6,-4,0,-5,512,171,1.0,5.0,3.333333333333334,0.0,-1.0,2.886751345948129,0.410326119149236
1,18,3,-6,-4,0,-6,399,172,-0.6666666666666665,3.333333333333334,3.333333333333334,-1.6666666666666665,-1.0,2.5819888974716116,0.0
1,18,4,-6,-4,1,-6,327,173,-1.75,2.5000000000000004,3.333333333333334,-2.75,-1.0,2.41522945769824,-0.24460302826636404
1,18,5,-6,-4,0,-7,406,174,-0.5,2.5000000000000004,2.5000000000000004,-2.75,-2.25,2.23606797749979,0.0
1,18,6,-6,-4,1,-2,328,175,-1.35,2.0,2.5000000000000004,-3.6,-2.25,2.1213203435596424,-0.16692526771109462
1,18,7,-6,-4,0,-6,343,176,-1.4,2.0,2.0,-3.6,-2.2,2.0,0.0
1,18,8,-6,-4,1,-4,344,177,-1.7999999999999998,1.6666666666666667,2.0,-4.0,-2.2,1.9148542155126762,-0.12321911363728955
1,18,9,-6,-4,0,-6,377,178,-1.5,1.6666666666666667,1.6666666666666667,-4.0,-2.5,1.8257418583505538,0.0
1,18,10,-6,-4,1,-2,327,179,-1.7857142857142856,1.4285714285714286,1.6666666666666667,-4.285714285714286,-2.5,1.7593288763724921,-0.09576583940141203
1,19,1,2,18,1,18,484,180,0.0,5.0,5.0,0.0,0.0,3.1622776601683795,0.0
1,19,2,2,18,0,1,359,181,-6.0,5.0,3.333333333333334,0.0,6.0,2.886751345948129,0.410326119149236
1,19,3,2,18,1,18,343,182,-5.666666666666667,3.333333333333334,3.333333333333334,0.3333333333333333,6.0,2.5819888974716116,0.0
1,19,4,2,18,1,18,311,183,-8.666666666666666,3.333333333333334,2.5000000000000004,0.3333333333333333,9.0,2.41522945769824,0.24460302826636404
1,19,5,2,18,1,17,343,184,-10.466666666666667,3.333333333333334,2.0,0.3333333333333333,10.8,2.3094010767585034,0.41152829597745866
1,19,6,2,18,1,18,351,185,-11.5,3.333333333333334,1.6666666666666667,0.3333333333333333,11.833333333333334,2.23606797749979,0.5347474096147482
1,19,7,2,18,1,18,359,186,-12.380952380952381,3.333333333333334,1.4285714285714286,0.3333333333333333,12.714285714285715,2.182178902359924,0.6305132490161602
1,19,8,2,18,1,18,351,187,-13.041666666666666,3.333333333333334,1.25,0.3333333333333333,13.375,2.1408720964441885,0.7077078696006589
1,19,9,2,18,1,18,367,188,-13.555555555555555,3.333333333333334,1.1111111111111112,0.3333333333333333,13.88888888888889,2.1081851067789197,0.771649304961094
1,19,10,2,18,1,19,360,189,-13.966666666666667,3.333333333333334,1.0,0.3333333333333333,14.3,2.081665999466133,0.8257418583505538
1,20,1,3,3,1,4,553,190,0.0,5.0,5.0,0.0,0.0,3.1622776601683795,0.0
1,20,2,3,3,0,1,487,191,-1.3333333333333333,5.0,3.333333333333334,0.0,1.3333333333333333,2.886751345948129,0.410326119149236
1,20,3,3,3,1,3,375,192,-1.0,3.333333333333334,3.333333333333334,0.3333333333333333,1.3333333333333333,2.5819888974716116,0.0
1,20,4,3,3,1,3,343,193,-1.4166666666666667,3.333333333333334,2.5000000000000004,0.3333333333333333,1.75,2.41522945769824,0.24460302826636404
1,20,5,3,3,1,5,350,194,-1.6666666666666667,3.333333333333334,2.0,0.3333333333333333,2.0,2.3094010767585034,0.41152829597745866
1,20,6,3,3,1,4,327,195,-2.1666666666666665,3.333333333333334,1.6666666666666667,0.3333333333333333,2.5,2.23606797749979,0.5347474096147482
1,20,7,3,3,1,2,335,196,-2.380952380952381,3.333333333333334,1.4285714285714286,0.3333333333333333,2.7142857142857144,2.182178902359924,0.6305132490161602
1,20,8,3,3,1,4,439,197,-2.2916666666666665,3.333333333333334,1.25,0.3333333333333333,2.625,2.1408720964441885,0.7077078696006589
1,20,9,3,3,1,3,375,198,-2.444444444444444,3.333333333333334,1.1111111111111112,0.3333333333333333,2.7777777777777777,2.1081851067789197,0.771649304961094
1,20,10,3,3,1,4,357,199,-2.4666666666666663,3.333333333333334,1.0,0.3333333333333333,2.8,2.081665999466133,0.8257418583505538
2,1,1,-2,-7,0,-3,1309,200,0.0,5.0,5.0,0.0,0.0,3.1622776601683795,0.0
2,1,2,-2,-7,1,-8,698,201,-1.0,3.333333333333334,5.0,-1.0,0.0,2.886751345948129,-0.410326119149236
2,1,3,-2,-7,0,-3,606,202,1.6666666666666665,3.333333333333334,3.333333333333334,-1.0,-2.6666666666666665,2.5819888974716116,0.0
2,1,4,-2,-7,1,-7,507,203,1.1666666666666665,2.5000000000000004,3.333333333333334,-1.5,-2.6666666666666665,2.41522945769824,-0.24460302826636404
2,1,5,-2,-7,0,-2,492,204,2.25,2.5000000000000004,2.5000000000000004,-1.5,-3.75,2.23606797749979,0.0
2,1,6,-2,-7,0,-2,469,205,2.15,2.0,2.5000000000000004,-1.6,-3.75,2.1213203435596424,-0.16692526771109462
2,1,7,-2,-7,0,-1,375,206,2.083333333333333,1.6666666666666667,2.5000000000000004,-1.6666666666666667,-3.75,2.041241452319315,-0.29014438134838416
2,1,8,-2,-7,0,-3,358,207,2.178571428571429,1.4285714285714286,2.5000000000000004,-1.5714285714285714,-3.75,1.9820624179302297,-0.3859102207497962
2,1,9,-2,-7,1,-7,367,208,2.0,1.25,2.5000000000000004,-1.75,-3.75,1.9364916731037085,-0.46310484133429486
2,1,10,-2,-7,0,-2,329,209,2.6500000000000004,1.25,2.0,-1.75,-4.4,1.8027756377319946,-0.29617957362320024
2,2,1,8,8,1,8,901,210,0.0,5.0,5.0,0.0,0.0,3.1622776601683795,0.0
2,2,2,8,8,0,7,520,211,-2.6666666666666665,5.0,3.333333333333334,0.0,2.6666666666666665,2.886751345948129,0.410326119149236
2,2,3,8,8,1,9,390,212,-0.3333333333333335,3.333333333333334,3.333333333333334,2.333333333333333,2.6666666666666665,2.5819888974716116,0.0
2,2,4,8,8,1,8,496,213,-1.916666666666667,3.333333333333334,2.5000000000000004,2.333333333333333,4.25,2.41522945769824,0.24460302826636404
2,2,5,8,8,1,6,383,214,-2.666666666666667,3.333333333333334,2.0,2.333333333333333,5.0,2.3094010767585034,0.41152829597745866
2,2,6,8,8,1,8,369,215,-2.833333333333334,3.333333333333334,1.6666666666666667,2.333333333333333,5.166666666666667,2.23606797749979,0.5347474096147482
2,2,7,8,8,1,9,383,216,-3.238095238095239,3.333333333333334,1.4285714285714286,2.333333333333333,5.571428571428572,2.182178902359924,0.6305132490161602
2,2,8,8,8,1,7,376,217,-3.666666666666668,3.333333333333334,1.25,2.333333333333333,6.000000000000001,2.1408720964441885,0.7077078696006589
2,2,9,8,8,1,9,557,218,-3.7777777777777786,3.333333333333334,1.1111111111111112,2.333333333333333,6.111111111111112,2.1081851067789197,0.771649304961094
2,2,10,8,8,1,8,366,219,-4.066666666666667,3.333333333333334,1.0,2.333333333333333,6.4,2.081665999466133,0.8257418583505538
2,3,1,11,-5,1,-5,1284,220,0.0,5.0,5.0,0.0,0.0,3.1622776601683795,0.0
2,3,2,11,-5,0,11,438,221,1.6666666666666665,5.0,3.333333333333334,0.0,-1.6666666666666665,2.886751345948129,0.410326119149236
2,3,3,11,-5,0,11,445,222,5.333333333333333,3.333333333333334,3.333333333333334,3.6666666666666665,-1.6666666666666665,2.5819888974716116,0.0
2,3,4,11,-5,0,11,535,223,7.166666666666666,2.5000000000000004,3.333333333333334,5.5,-1.6666666666666665,2.41522945769824,-0.24460302826636404
2,3,5,11,-5,0,11,689,224,8.266666666666667,2.0,3.333333333333334,6.6000000000000005,-1.6666666666666665,2.3094010767585034,-0.41152829597745866
2,3,6,11,-5,0,11,566,225,9.0,1.6666666666666667,3.333333333333334,7.333333333333334,-1.6666666666666665,2.23606797749979,-0.5347474096147482
2,3,7,11,-5,0,13,538,226,9.523809523809524,1.4285714285714286,3.333333333333334,7.857142857142858,-1.6666666666666665,2.182178902359924,-0.6305132490161602
2,3,8,11,-5,0,13,543,227,10.166666666666666,1.25,3.333333333333334,8.5,-1.6666666666666665,2.1408720964441885,-0.7077078696006589
2,3,9,11,-5,0,10,509,228,10.666666666666666,1.1111111111111112,3.333333333333334,9.0,-1.6666666666666665,2.1081851067789197,-0.771649304961094
2,3,10,11,-5,0,11,600,229,10.766666666666666,1.0,3.333333333333334,9.1,-1.6666666666666665,2.081665999466133,-0.8257418583505538
2,4,1,-5,6,1,6,1517,230,0.0,5.0,5.0,0.0,0.0,3.1622776601683795,0.0
2,4,2,-5,6,0,-5,539,231,-2.0,5.0,3.333333333333334,0.0,2.0,2.886751345948129,0.410326119149236
2,4,3,-5,6,1,8,412,232,-3.6666666666666665,3.333333333333334,3.333333333333334,-1.6666666666666665,2.0,2.5819888974716116,0.0
2,4,4,-5,6,1,6,514,233,-5.166666666666667,3.333333333333334,2.5000000000000004,-1.6666666666666665,3.5000000000000004,2.41522945769824,0.24460302826636404
2,4,5,-5,6,1,6,466,234,-5.666666666666666,3.333333333333334,2.0,-1.6666666666666665,4.0,2.3094010767585034,0.41152829597745866
2,4,6,-5,6,1,6,448,235,-6.0,3.333333333333334,1.6666666666666667,-1.6666666666666665,4.333333333333333,2.23606797749979,0.5347474096147482
2,4,7,-5,6,1,7,430,236,-6.238095238095237,3.333333333333334,1.4285714285714286,-1.6666666666666665,4.571428571428571,2.182178902359924,0.6305132490161602
2,4,8,-5,6,1,6,454,237,-6.541666666666666,3.333333333333334,1.25,-1.6666666666666665,4.875,2.1408720964441885,0.7077078696006589
2,4,9,-5,6,1,5,412,238,-6.666666666666666,3.333333333333334,1.1111111111111112,-1.6666666666666665,5.0,2.1081851067789197,0.771649304961094
2,4,10,-5,6,1,4,412,239,-6.666666666666666,3.333333333333334,1.0,-1.6666666666666665,5.0,2.081665999466133,0.8257418583505538
2,5,1,-3,16,1,15,850,240,0.0,5.0,5.0,0.0,0.0,3.1622776601683795,0.0
2,5,2,-3,16,0,-2,505,241,-5.0,5.0,3.333333333333334,0.0,5.0,2.886751345948129,0.410326119149236
2,5,3,-3,16,1,15,349,242,-5.666666666666667,3.333333333333334,3.333333333333334,-0.6666666666666666,5.0,2.5819888974716116,0.0
2,5,4,-3,16,1,15,399,243,-8.166666666666666,3.333333333333334,2.5000000000000004,-0.6666666666666666,7.5,2.41522945769824,0.24460302826636404
2,5,5,-3,16,1,16,342,244,-9.666666666666666,3.333333333333334,2.0,-0.6666666666666666,9.0,2.3094010767585034,0.41152829597745866
2,5,6,-3,16,1,17,335,245,-10.833333333333332,3.333333333333334,1.6666666666666667,-0.6666666666666666,10.166666666666666,2.23606797749979,0.5347474096147482
2,5,7,-3,16,1,17,484,246,-11.809523809523808,3.333333333333334,1.4285714285714286,-0.6666666666666666,11.142857142857142,2.182178902359924,0.6305132490161602
2,5,8,-3,16,1,17,595,247,-12.541666666666666,3.333333333333334,1.25,-0.6666666666666666,11.875,2.1408720964441885,0.7077078696006589
2,5,9,-3,16,1,16,818,248,-13.11111111111111,3.333333333333334,1.1111111111111112,-0.6666666666666666,12.444444444444445,2.1081851067789197,0.771649304961094
2,5,10,-3,16,1,16,1322,249,-13.466666666666667,3.333333333333334,1.0,-0.6666666666666666,12.8,2.081665999466133,0.8257418583505538
2,6,1,-15,6,1,6,2294,250,0.0,5.0,5.0,0.0,0.0,3.1622776601683795,0.0
2,6,2,-15,6,0,-15,504,251,-2.0,5.0,3.333333333333334,0.0,2.0,2.886751345948129,0.410326119149236
2,6,3,-15,6,1,6,343,252,-7.0,3.333333333333334,3.333333333333334,-5.0,2.0,2.5819888974716116,0.0
2,6,4,-15,6,1,8,313,253,-8.0,3.333333333333334,2.5000000000000004,-5.0,3.0,2.41522945769824,0.24460302826636404
2,6,5,-15,6,1,6,340,254,-9.0,3.333333333333334,2.0,-5.0,4.0,2.3094010767585034,0.41152829597745866
2,6,6,-15,6,1,6,404,255,-9.333333333333332,3.333333333333334,1.6666666666666667,-5.0,4.333333333333333,2.23606797749979,0.5347474096147482
2,6,7,-15,6,1,5,353,256,-9.571428571428571,3.333333333333334,1.4285714285714286,-5.0,4.571428571428571,2.182178902359924,0.6305132490161602
2,6,8,-15,6,1,7,350,257,-9.625,3.333333333333334,1.25,-5.0,4.625,2.1408720964441885,0.7077078696006589
2,6,9,-15,6,1,6,377,258,-9.88888888888889,3.333333333333334,1.1111111111111112,-5.0,4.888888888888889,2.1081851067789197,0.771649304961094
2,6,10,-15,6,1,7,349,259,-10.0,3.333333333333334,1.0,-5.0,5.0,2.081665999466133,0.8257418583505538
2,7,1,-1,8,1,7,625,260,0.0,5.0,5.0,0.0,0.0,3.1622776601683795,0.0
2,7,2,-1,8,0,-2,715,261,-2.333333333333333,5.0,3.333333333333334,0.0,2.333333333333333,2.886751345948129,0.410326119149236
2,7,3,-1,8,1,8,415,262,-2.9999999999999996,3.333333333333334,3.333333333333334,-0.6666666666666666,2.333333333333333,2.5819888974716116,0.0
2,7,4,-1,8,1,8,336,263,-4.416666666666667,3.333333333333334,2.5000000000000004,-0.6666666666666666,3.75,2.41522945769824,0.24460302826636404
2,7,5,-1,8,1,9,319,264,-5.2666666666666675,3.333333333333334,2.0,-0.6666666666666666,4.6000000000000005,2.3094010767585034,0.41152829597745866
2,7,6,-1,8,1,8,304,265,-6.000000000000001,3.333333333333334,1.6666666666666667,-0.6666666666666666,5.333333333333334,2.23606797749979,0.5347474096147482
2,7,7,-1,8,1,7,451,266,-6.380952380952382,3.333333333333334,1.4285714285714286,-0.6666666666666666,5.714285714285715,2.182178902359924,0.6305132490161602
2,7,8,-1,8,1,10,341,267,-6.541666666666668,3.333333333333334,1.25,-0.6666666666666666,5.875000000000001,2.1408720964441885,0.7077078696006589
2,7,9,-1,8,1,8,364,268,-7.000000000000001,3.333333333333334,1.1111111111111112,-0.6666666666666666,6.333333333333334,2.1081851067789197,0.771649304961094
2,7,10,-1,8,1,9,404,269,-7.166666666666668,3.333333333333334,1.0,-0.6666666666666666,6.500000000000001,2.081665999466133,0.8257418583505538
2,8,1,5,-14,1,-14,1108,270,0.0,5.0,5.0,0.0,0.0,3.1622776601683795,0.0
2,8,2,5,-14,0,4,382,271,4.666666666666666,5.0,3.333333333333334,0.0,-4.666666666666666,2.886751345948129,0.410326119149236
2,8,3,5,-14,0,4,350,272,5.999999999999999,3.333333333333334,3.333333333333334,1.3333333333333333,-4.666666666666666,2.5819888974716116,0.0
2,8,4,5,-14,0,4,304,273,6.666666666666666,2.5000000000000004,3.333333333333334,2.0,-4.666666666666666,2.41522945769824,-0.24460302826636404
2,8,5,5,-14,0,5,365,274,7.066666666666666,2.0,3.333333333333334,2.4,-4.666666666666666,2.3094010767585034,-0.41152829597745866
2,8,6,5,-14,0,5,405,275,7.499999999999999,1.6666666666666667,3.333333333333334,2.833333333333333,-4.666666666666666,2.23606797749979,-0.5347474096147482
2,8,7,5,-14,0,4,439,276,7.809523809523808,1.4285714285714286,3.333333333333334,3.142857142857143,-4.666666666666666,2.182178902359924,-0.6305132490161602
2,8,8,5,-14,0,7,647,277,7.916666666666666,1.25,3.333333333333334,3.25,-4.666666666666666,2.1408720964441885,-0.7077078696006589
2,8,9,5,-14,0,6,1016,278,8.333333333333332,1.1111111111111112,3.333333333333334,3.6666666666666665,-4.666666666666666,2.1081851067789197,-0.771649304961094
2,8,10,5,-14,0,5,498,279,8.566666666666666,1.0,3.333333333333334,3.9,-4.666666666666666,2.081665999466133,-0.8257418583505538
2,9,1,15,0,0,14,562,280,0.0,5.0,5.0,0.0,0.0,3.1622776601683795,0.0
2,9,2,15,0,0,13,391,281,4.666666666666666,3.333333333333334,5.0,4.666666666666666,0.0,2.886751345948129,-0.410326119149236
2,9,3,15,0,0,14,488,282,6.75,2.5000000000000004,5.0,6.75,0.0,2.7386127875258306,-0.6549291474156
2,9,4,15,0,0,14,306,283,8.2,2.0,5.0,8.2,0.0,2.6457513110645907,-0.8218544151266947
2,9,5,15,0,0,15,359,284,9.166666666666666,1.6666666666666667,5.0,9.166666666666666,0.0,2.581988897471611,-0.9450735287639842
2,9,6,15,0,0,17,567,285,10.0,1.4285714285714286,5.0,10.0,0.0,2.53546276418555,-1.0408393681653962
2,9,7,15,0,0,16,491,286,10.875,1.25,5.0,10.875,0.0,2.5,-1.118033988749895
2,9,8,15,0,0,14,388,287,11.444444444444445,1.1111111111111112,5.0,11.444444444444445,0.0,2.4720661623652207,-1.18197542411033
2,9,9,15,0,0,16,427,288,11.7,1.0,5.0,11.7,0.0,2.449489742783178,-1.2360679774997898
2,9,10,15,0,0,16,799,289,12.09090909090909,0.9090909090909091,5.0,12.09090909090909,0.0,2.4308621740219887,-1.2826053882541975
2,10,1,12,6,1,6,1019,290,0.0,5.0,5.0,0.0,0.0,3.1622776601683795,0.0
2,10,2,12,6,0,14,356,291,-2.0,5.0,3.333333333333334,0.0,2.0,2.886751345948129,0.410326119149236
2,10,3,12,6,0,13,356,292,2.666666666666666,3.333333333333334,3.333333333333334,4.666666666666666,2.0,2.5819888974716116,0.0
2,10,4,12,6,0,10,429,293,4.75,2.5000000000000004,3.333333333333334,6.75,2.0,2.41522945769824,-0.24460302826636404
2,10,5,12,6,0,12,332,294,5.4,2.0,3.333333333333334,7.4,2.0,2.3094010767585034,-0.41152829597745866
2,10,6,12,6,0,12,312,295,6.166666666666668,1.6666666666666667,3.333333333333334,8.166666666666668,2.0,2.23606797749979,-0.5347474096147482
2,10,7,12,6,0,13,338,296,6.714285714285715,1.4285714285714286,3.333333333333334,8.714285714285715,2.0,2.182178902359924,-0.6305132490161602
2,10,8,12,6,0,13,398,297,7.25,1.25,3.333333333333334,9.25,2.0,2.1408720964441885,-0.7077078696006589
2,10,9,12,6,0,11,412,298,7.666666666666666,1.1111111111111112,3.333333333333334,9.666666666666666,2.0,2.1081851067789197,-0.771649304961094
2,10,10,12,6,0,13,426,299,7.799999999999999,1.0,3.333333333333334,9.799999999999999,2.0,2.081665999466133,-0.8257418583505538
2,11,1,6,5,0,6,624,300,0.0,5.0,5.0,0.0,0.0,3.1622776601683795,0.0
2,11,2,6,5,1,4,351,301,2.0,3.333333333333334,5.0,2.0,0.0,2.886751345948129,-0.410326119149236
2,11,3,6,5,0,6,413,302,0.6666666666666667,3.333333333333334,3.333333333333334,2.0,1.3333333333333333,2.5819888974716116,0.0
2,11,4,6,5,1,5,349,303,1.6666666666666667,2.5000000000000004,3.333333333333334,3.0,1.3333333333333333,2.41522945769824,-0.24460302826636404
2,11,5,6,5,1,6,374,304,0.75,2.5000000000000004,2.5000000000000004,3.0,2.25,2.23606797749979,0.0
2,11,6,6,5,1,5,335,305,0.0,2.5000000000000004,2.0,3.0,3.0,2.1213203435596424,0.16692526771109462
2,11,7,6,5,0,5,333,306,-0.3333333333333335,2.5000000000000004,1.6666666666666667,3.0,3.3333333333333335,2.041241452319315,0.29014438134838416
2,11,8,6,5,0,7,423,307,0.06666666666666643,2.0,1.6666666666666667,3.4,3.3333333333333335,1.9148542155126762,0.12321911363728955
2,11,9,6,5,0,6,358,308,0.6666666666666665,1.6666666666666667,1.6666666666666667,4.0,3.3333333333333335,1.8257418583505538,0.0
2,11,10,6,5,0,6,350,309,0.9523809523809521,1.4285714285714286,1.6666666666666667,4.285714285714286,3.3333333333333335,1.7593288763724921,-0.09576583940141203
2,12,1,-7,-4,0,-7,852,310,0.0,5.0,5.0,0.0,0.0,3.1622776601683795,0.0
2,12,2,-7,-4,1,-3,382,311,-2.333333333333333,3.333333333333334,5.0,-2.333333333333333,0.0,2.886751345948129,-0.410326119149236
2,12,3,-7,-4,1,-3,367,312,-1.333333333333333,3.333333333333334,3.333333333333334,-2.333333333333333,-1.0,2.5819888974716116,0.0
2,12,4,-7,-4,0,-6,438,313,-0.833333333333333,3.333333333333334,2.5000000000000004,-2.333333333333333,-1.5,2.41522945769824,0.24460302826636404
2,12,5,-7,-4,1,-4,377,314,-1.75,2.5000000000000004,2.5000000000000004,-3.25,-1.5,2.23606797749979,0.0
2,12,6,-7,-4,1,-6,399,315,-1.25,2.5000000000000004,2.0,-3.25,-2.0,2.1213203435596424,0.16692526771109462
2,12,7,-7,-4,0,-5,398,316,-0.5833333333333335,2.5000000000000004,1.6666666666666667,-3.25,-2.6666666666666665,2.041241452319315,0.29014438134838416
2,12,8,-7,-4,1,-3,344,317,-0.9333333333333336,2.0,1.6666666666666667,-3.6,-2.6666666666666665,1.9148542155126762,0.12321911363728955
2,12,9,-7,-4,1,-4,374,318,-0.8857142857142861,2.0,1.4285714285714286,-3.6,-2.714285714285714,1.851640199545103,0.21898495303870158
2,12,10,-7,-4,1,-4,405,319,-0.7250000000000005,2.0,1.25,-3.6,-2.8749999999999996,1.8027756377319946,0.29617957362320024
2,13,1,12,2,1,0,586,320,0.0,5.0,5.0,0.0,0.0,3.1622776601683795,0.0
2,13,2,12,2,0,13,434,321,0.0,5.0,3.333333333333334,0.0,0.0,2.886751345948129,0.410326119149236
2,13,3,12,2,0,13,423,322,4.333333333333333,3.333333333333334,3.333333333333334,4.333333333333333,0.0,2.5819888974716116,0.0
2,13,4,12,2,0,11,382,323,6.5,2.5000000000000004,3.333333333333334,6.5,0.0,2.41522945769824,-0.24460302826636404
2,13,5,12,2,0,12,353,324,7.4,2.0,3.333333333333334,7.4,0.0,2.3094010767585034,-0.41152829597745866
2,13,6,12,2,0,12,383,325,8.166666666666668,1.6666666666666667,3.333333333333334,8.166666666666668,0.0,2.23606797749979,-0.5347474096147482
2,13,7,12,2,0,11,390,326,8.714285714285715,1.4285714285714286,3.333333333333334,8.714285714285715,0.0,2.182178902359924,-0.6305132490161602
2,13,8,12,2,0,11,517,327,9.0,1.25,3.333333333333334,9.0,0.0,2.1408720964441885,-0.7077078696006589
2,13,9,12,2,0,11,539,328,9.222222222222221,1.1111111111111112,3.333333333333334,9.222222222222221,0.0,2.1081851067789197,-0.771649304961094
2,13,10,12,2,0,14,362,329,9.399999999999999,1.0,3.333333333333334,9.399999999999999,0.0,2.081665999466133,-0.8257418583505538
2,14,1,6,2,0,7,6542,330,0.0,5.0,5.0,0.0,0.0,3.1622776601683795,0.0
2,14,2,6,2,1,3,358,331,2.333333333333333,3.333333333333334,5.0,2.333333333333333,0.0,2.886751345948129,-0.410326119149236
2,14,3,6,2,0,5,280,332,1.333333333333333,3.333333333333334,3.333333333333334,2.333333333333333,1.0,2.5819888974716116,0.0
2,14,4,6,2,1,3,326,333,2.0,2.5000000000000004,3.333333333333334,3.0,1.0,2.41522945769824,-0.24460302826636404
2,14,5,6,2,0,6,337,334,1.5,2.5000000000000004,2.5000000000000004,3.0,1.5,2.23606797749979,0.0
2,14,6,6,2,0,7,361,335,2.1,2.0,2.5000000000000004,3.6,1.5,2.1213203435596424,-0.16692526771109462
2,14,7,6,2,0,4,836,336,2.666666666666667,1.6666666666666667,2.5000000000000004,4.166666666666667,1.5,2.041241452319315,-0.29014438134838416
2,14,8,6,2,0,4,392,337,2.6428571428571432,1.4285714285714286,2.5000000000000004,4.142857142857143,1.5,1.9820624179302297,-0.3859102207497962
2,14,9,6,2,0,8,2157,338,2.625,1.25,2.5000000000000004,4.125,1.5,1.9364916731037085,-0.46310484133429486
2,14,10,6,2,0,5,387,339,3.0555555555555554,1.1111111111111112,2.5000000000000004,4.555555555555555,1.5,1.90029237516523,-0.5270462766947299
2,15,1,6,-9,1,-10,1880,340,0.0,5.0,5.0,0.0,0.0,3.1622776601683795,0.0
2,15,2,6,-9,0,5,396,341,3.333333333333333,5.0,3.333333333333334,0.0,-3.333333333333333,2.886751345948129,0.410326119149236
2,15,3,6,-9,0,7,319,342,5.0,3.333333333333334,3.333333333333334,1.6666666666666665,-3.333333333333333,2.5819888974716116,0.0
2,15,4,6,-9,0,6,388,343,6.333333333333333,2.5000000000000004,3.333333333333334,3.0,-3.333333333333333,2.41522945769824,-0.24460302826636404
2,15,5,6,-9,0,4,326,344,6.933333333333334,2.0,3.333333333333334,3.6,-3.333333333333333,2.3094010767585034,-0.41152829597745866
2,15,6,6,-9,0,7,325,345,7.0,1.6666666666666667,3.333333333333334,3.666666666666667,-3.333333333333333,2.23606797749979,-0.5347474096147482
2,15,7,6,-9,0,6,367,346,7.476190476190476,1.4285714285714286,3.333333333333334,4.142857142857143,-3.333333333333333,2.182178902359924,-0.6305132490161602
2,15,8,6,-9,0,6,383,347,7.708333333333333,1.25,3.333333333333334,4.375,-3.333333333333333,2.1408720964441885,-0.7077078696006589
2,15,9,6,-9,0,7,366,348,7.888888888888888,1.1111111111111112,3.333333333333334,4.555555555555555,-3.333333333333333,2.1081851067789197,-0.771649304961094
2,15,10,6,-9,0,6,406,349,8.133333333333333,1.0,3.333333333333334,4.8,-3.333333333333333,2.081665999466133,-0.8257418583505538
2,16,1,5,-3,0,5,704,350,0.0,5.0,5.0,0.0,0.0,3.1622776601683795,0.0
2,16,2,5,-3,1,-4,364,351,1.6666666666666665,3.333333333333334,5.0,1.6666666666666665,0.0,2.886751345948129,-0.410326119149236
2,16,3,5,-3,0,7,1951,352,3.0,3.333333333333334,3.333333333333334,1.6666666666666665,-1.3333333333333333,2.5819888974716116,0.0
2,16,4,5,-3,0,6,367,353,4.333333333333333,2.5000000000000004,3.333333333333334,3.0,-1.3333333333333333,2.41522945769824,-0.24460302826636404
2,16,5,5,-3,0,6,352,354,4.933333333333334,2.0,3.333333333333334,3.6,-1.3333333333333333,2.3094010767585034,-0.41152829597745866
2,16,6,5,-3,0,5,336,355,5.333333333333333,1.6666666666666667,3.333333333333334,4.0,-1.3333333333333333,2.23606797749979,-0.5347474096147482
2,16,7,5,-3,0,8,374,356,5.476190476190476,1.4285714285714286,3.333333333333334,4.142857142857143,-1.3333333333333333,2.182178902359924,-0.6305132490161602
2,16,8,5,-3,0,4,413,357,5.958333333333333,1.25,3.333333333333334,4.625,-1.3333333333333333,2.1408720964441885,-0.7077078696006589
2,16,9,5,-3,0,5,318,358,5.888888888888888,1.1111111111111112,3.333333333333334,4.555555555555555,-1.3333333333333333,2.1081851067789197,-0.771649304961094
2,16,10,5,-3,0,7,356,359,5.933333333333333,1.0,3.333333333333334,4.6,-1.3333333333333333,2.081665999466133,-0.8257418583505538
2,17,1,-2,11,1,10,962,360,0.0,5.0,5.0,0.0,0.0,3.1622776601683795,0.0
2,17,2,-2,11,0,-3,459,361,-3.333333333333333,5.0,3.333333333333334,0.0,3.333333333333333,2.886751345948129,0.410326119149236
2,17,3,-2,11,1,10,320,362,-4.333333333333333,3.333333333333334,3.333333333333334,-1.0,3.333333333333333,2.5819888974716116,0.0
2,17,4,-2,11,1,11,270,363,-6.0,3.333333333333334,2.5000000000000004,-1.0,5.0,2.41522945769824,0.24460302826636404
2,17,5,-2,11,1,12,326,364,-7.2,3.333333333333334,2.0,-1.0,6.2,2.3094010767585034,0.41152829597745866
2,17,6,-2,11,1,10,287,365,-8.166666666666668,3.333333333333334,1.6666666666666667,-1.0,7.166666666666667,2.23606797749979,0.5347474096147482
2,17,7,-2,11,1,10,340,366,-8.571428571428573,3.333333333333334,1.4285714285714286,-1.0,7.571428571428572,2.182178902359924,0.6305132490161602
2,17,8,-2,11,1,11,350,367,-8.875,3.333333333333334,1.25,-1.0,7.875000000000001,2.1408720964441885,0.7077078696006589
2,17,9,-2,11,1,9,282,368,-9.222222222222223,3.333333333333334,1.1111111111111112,-1.0,8.222222222222223,2.1081851067789197,0.771649304961094
2,17,10,-2,11,1,11,358,369,-9.3,3.333333333333334,1.0,-1.0,8.3,2.081665999466133,0.8257418583505538
2,18,1,-1,-9,1,-9,671,370,0.0,5.0,5.0,0.0,0.0,3.1622776601683795,0.0
2,18,2,-1,-9,0,-2,374,371,3.0,5.0,3.333333333333334,0.0,-3.0,2.886751345948129,0.410326119149236
2,18,3,-1,-9,0,0,397,372,2.3333333333333335,3.333333333333334,3.333333333333334,-0.6666666666666666,-3.0,2.5819888974716116,0.0
2,18,4,-1,-9,0,-2,335,373,2.5,2.5000000000000004,3.333333333333334,-0.49999999999999994,-3.0,2.41522945769824,-0.24460302826636404
2,18,5,-1,-9,0,-2,376,374,2.2,2.0,3.333333333333334,-0.8,-3.0,2.3094010767585034,-0.41152829597745866
2,18,6,-1,-9,0,0,348,375,2.0,1.6666666666666667,3.333333333333334,-1.0,-3.0,2.23606797749979,-0.5347474096147482
2,18,7,-1,-9,0,-1,349,376,2.142857142857143,1.4285714285714286,3.333333333333334,-0.8571428571428571,-3.0,2.182178902359924,-0.6305132490161602
2,18,8,-1,-9,1,-8,385,377,2.125,1.25,3.333333333333334,-0.875,-3.0,2.1408720964441885,-0.7077078696006589
2,18,9,-1,-9,0,-1,356,378,3.375,1.25,2.5000000000000004,-0.875,-4.25,1.9364916731037085,-0.46310484133429486
2,18,10,-1,-9,0,1,374,379,3.361111111111111,1.1111111111111112,2.5000000000000004,-0.8888888888888888,-4.25,1.90029237516523,-0.5270462766947299
2,19,1,18,-6,0,19,2858,380,0.0,5.0,5.0,0.0,0.0,3.1622776601683795,0.0
2,19,2,18,-6,0,19,366,381,6.333333333333333,3.333333333333334,5.0,6.333333333333333,0.0,2.886751345948129,-0.410326119149236
2,19,3,18,-6,0,18,337,382,9.5,2.5000000000000004,5.0,9.5,0.0,2.7386127875258306,-0.6549291474156
2,19,4,18,-6,0,15,323,383,11.200000000000001,2.0,5.0,11.200000000000001,0.0,2.6457513110645907,-0.8218544151266947
2,19,5,18,-6,0,17,416,384,11.833333333333334,1.6666666666666667,5.0,11.833333333333334,0.0,2.581988897471611,-0.9450735287639842
2,19,6,18,-6,0,18,380,385,12.571428571428573,1.4285714285714286,5.0,12.571428571428573,0.0,2.53546276418555,-1.0408393681653962
2,19,7,18,-6,0,17,385,386,13.250000000000002,1.25,5.0,13.250000000000002,0.0,2.5,-1.118033988749895
2,19,8,18,-6,0,18,384,387,13.666666666666668,1.1111111111111112,5.0,13.666666666666668,0.0,2.4720661623652207,-1.18197542411033
2,19,9,18,-6,0,18,352,388,14.100000000000001,1.0,5.0,14.100000000000001,0.0,2.449489742783178,-1.2360679774997898
2,19,10,18,-6,0,19,382,389,14.454545454545455,0.9090909090909091,5.0,14.454545454545455,0.0,2.4308621740219887,-1.2826053882541975
2,20,1,15,-3,0,16,658,390,0.0,5.0,5.0,0.0,0.0,3.1622776601683795,0.0
2,20,2,15,-3,0,15,516,391,5.333333333333333,3.333333333333334,5.0,5.333333333333333,0.0,2.886751345948129,-0.410326119149236
2,20,3,15,-3,0,15,312,392,7.75,2.5000000000000004,5.0,7.75,0.0,2.7386127875258306,-0.6549291474156
2,20,4,15,-3,0,15,318,393,9.2,2.0,5.0,9.2,0.0,2.6457513110645907,-0.8218544151266947
2,20,5,15,-3,0,15,328,394,10.166666666666666,1.6666666666666667,5.0,10.166666666666666,0.0,2.581988897471611,-0.9450735287639842
2,20,6,15,-3,0,15,329,395,10.857142857142858,1.4285714285714286,5.0,10.857142857142858,0.0,2.53546276418555,-1.0408393681653962
2,20,7,15,-3,0,14,327,396,11.375,1.25,5.0,11.375,0.0,2.5,-1.118033988749895
2,20,8,15,-3,0,17,343,397,11.666666666666666,1.1111111111111112,5.0,11.666666666666666,0.0,2.4720661623652207,-1.18197542411033
2,20,9,15,-3,0,16,351,398,12.2,1.0,5.0,12.2,0.0,2.449489742783178,-1.2360679774997898
2,20,10,15,-3,0,15,337,399,12.545454545454545,0.9090909090909091,5.0,12.545454545454545,0.0,2.4308621740219887,-1.2826053882541975
3,1,1,10,9,0,9,1559,400,0.0,5.0,5.0,0.0,0.0,3.1622776601683795,0.0
3,1,2,10,9,1,10,816,401,3.0,3.333333333333334,5.0,3.0,0.0,2.886751345948129,-0.410326119149236
3,1,3,10,9,1,9,861,402,-0.33333333333333304,3.333333333333334,3.333333333333334,3.0,3.333333333333333,2.5819888974716116,0.0
3,1,4,10,9,0,9,578,403,-1.75,3.333333333333334,2.5000000000000004,3.0,4.75,2.41522945769824,0.24460302826636404
3,1,5,10,9,1,10,473,404,-0.25,2.5000000000000004,2.5000000000000004,4.5,4.75,2.23606797749979,0.0
3,1,6,10,9,1,9,444,405,-1.3000000000000007,2.5000000000000004,2.0,4.5,5.800000000000001,2.1213203435596424,0.16692526771109462
3,1,7,10,9,0,8,438,406,-1.833333333333334,2.5000000000000004,1.6666666666666667,4.5,6.333333333333334,2.041241452319315,0.29014438134838416
3,1,8,10,9,1,10,357,407,-1.1333333333333337,2.0,1.6666666666666667,5.2,6.333333333333334,1.9148542155126762,0.12321911363728955
3,1,9,10,9,0,9,383,408,-1.6571428571428575,2.0,1.4285714285714286,5.2,6.857142857142858,1.851640199545103,0.21898495303870158
3,1,10,10,9,1,10,387,409,-1.0238095238095237,1.6666666666666667,1.4285714285714286,5.833333333333334,6.857142857142858,1.7593288763724921,0.09576583940141203
3,2,1,-4,6,0,-5,861,410,0.0,5.0,5.0,0.0,0.0,3.1622776601683795,0.0
3,2,2,-4,6,1,4,372,411,-1.6666666666666665,3.333333333333334,5.0,-1.6666666666666665,0.0,2.886751345948129,-0.410326119149236
3,2,3,-4,6,0,-5,516,412,-3.0,3.333333333333334,3.333333333333334,-1.6666666666666665,1.3333333333333333,2.5819888974716116,0.0
3,2,4,-4,6,1,8,323,413,-3.833333333333333,2.5000000000000004,3.333333333333334,-2.5,1.3333333333333333,2.41522945769824,-0.24460302826636404
3,2,5,-4,6,1,5,336,414,-5.5,2.5000000000000004,2.5000000000000004,-2.5,3.0000000000000004,2.23606797749979,0.0
3,2,6,-4,6,0,-6,333,415,-5.9,2.5000000000000004,2.0,-2.5,3.4000000000000004,2.1213203435596424,0.16692526771109462
3,2,7,-4,6,1,8,313,416,-6.6000000000000005,2.0,2.0,-3.2,3.4000000000000004,2.0,0.0
3,2,8,-4,6,1,4,333,417,-7.366666666666667,2.0,1.6666666666666667,-3.2,4.166666666666667,1.9148542155126762,0.12321911363728955
3,2,9,-4,6,1,6,341,418,-7.342857142857143,2.0,1.4285714285714286,-3.2,4.142857142857143,1.851640199545103,0.21898495303870158
3,2,10,-4,6,1,5,316,419,-7.575,2.0,1.25,-3.2,4.375,1.8027756377319946,0.29617957362320024
3,3,1,4,-1,1,-2,468,420,0.0,5.0,5.0,0.0,0.0,3.1622776601683795,0.0
3,3,2,4,-1,0,4,343,421,0.6666666666666666,5.0,3.333333333333334,0.0,-0.6666666666666666,2.886751345948129,0.410326119149236
3,3,3,4,-1,0,5,259,422,2.0,3.333333333333334,3.333333333333334,1.3333333333333333,-0.6666666666666666,2.5819888974716116,0.0
3,3,4,4,-1,0,3,292,423,2.9166666666666665,2.5000000000000004,3.333333333333334,2.25,-0.6666666666666666,2.41522945769824,-0.24460302826636404
3,3,5,4,-1,0,3,322,424,3.0666666666666664,2.0,3.333333333333334,2.4,-0.6666666666666666,2.3094010767585034,-0.41152829597745866
3,3,6,4,-1,0,3,318,425,3.1666666666666665,1.6666666666666667,3.333333333333334,2.5,-0.6666666666666666,2.23606797749979,-0.5347474096147482
3,3,7,4,-1,0,5,336,426,3.238095238095238,1.4285714285714286,3.333333333333334,2.5714285714285716,-0.6666666666666666,2.182178902359924,-0.6305132490161602
3,3,8,4,-1,0,4,363,427,3.5416666666666665,1.25,3.333333333333334,2.875,-0.6666666666666666,2.1408720964441885,-0.7077078696006589
3,3,9,4,-1,0,5,415,428,3.6666666666666665,1.1111111111111112,3.333333333333334,3.0,-0.6666666666666666,2.1081851067789197,-0.771649304961094
3,3,10,4,-1,0,4,355,429,3.8666666666666667,1.0,3.333333333333334,3.2,-0.6666666666666666,2.081665999466133,-0.8257418583505538
3,4,1,-13,8,0,-13,422,430,0.0,5.0,5.0,0.0,0.0,3.1622776601683795,0.0
3,4,2,-13,8,1,8,384,431,-4.333333333333333,3.333333333333334,5.0,-4.333333333333333,0.0,2.886751345948129,-0.410326119149236
3,4,3,-13,8,1,8,464,432,-7.0,3.333333333333334,3.333333333333334,-4.333333333333333,2.6666666666666665,2.5819888974716116,0.0
3,4,4,-13,8,1,8,254,433,-8.333333333333332,3.333333333333334,2.5000000000000004,-4.333333333333333,4.0,2.41522945769824,0.24460302826636404
3,4,5,-13,8,1,7,209,434,-9.133333333333333,3.333333333333334,2.0,-4.333333333333333,4.8,2.3094010767585034,0.41152829597745866
3,4,6,-13,8,1,8,229,435,-9.5,3.333333333333334,1.6666666666666667,-4.333333333333333,5.166666666666666,2.23606797749979,0.5347474096147482
3,4,7,-13,8,1,9,226,436,-9.904761904761905,3.333333333333334,1.4285714285714286,-4.333333333333333,5.571428571428571,2.182178902359924,0.6305132490161602
3,4,8,-13,8,1,7,283,437,-10.333333333333332,3.333333333333334,1.25,-4.333333333333333,6.0,2.1408720964441885,0.7077078696006589
3,4,9,-13,8,1,6,235,438,-10.444444444444443,3.333333333333334,1.1111111111111112,-4.333333333333333,6.111111111111111,2.1081851067789197,0.771649304961094
3,4,10,-13,8,1,9,418,439,-10.433333333333334,3.333333333333334,1.0,-4.333333333333333,6.1,2.081665999466133,0.8257418583505538
3,5,1,-2,6,0,-2,370,440,0.0,5.0,5.0,0.0,0.0,3.1622776601683795,0.0
3,5,2,-2,6,1,4,258,441,-0.6666666666666666,3.333333333333334,5.0,-0.6666666666666666,0.0,2.886751345948129,-0.410326119149236
3,5,3,-2,6,1,7,233,442,-2.0,3.333333333333334,3.333333333333334,-0.6666666666666666,1.3333333333333333,2.5819888974716116,0.0
3,5,4,-2,6,1,6,241,443,-3.4166666666666665,3.333333333333334,2.5000000000000004,-0.6666666666666666,2.75,2.41522945769824,0.24460302826636404
3,5,5,-2,6,1,7,239,444,-4.066666666666667,3.333333333333334,2.0,-0.6666666666666666,3.4000000000000004,2.3094010767585034,0.41152829597745866
3,5,6,-2,6,1,7,277,445,-4.666666666666667,3.333333333333334,1.6666666666666667,-0.6666666666666666,4.0,2.23606797749979,0.5347474096147482
3,5,7,-2,6,1,7,379,446,-5.095238095238096,3.333333333333334,1.4285714285714286,-0.6666666666666666,4.428571428571429,2.182178902359924,0.6305132490161602
3,5,8,-2,6,1,6,294,447,-5.416666666666667,3.333333333333334,1.25,-0.6666666666666666,4.75,2.1408720964441885,0.7077078696006589
3,5,9,-2,6,1,6,257,448,-5.555555555555556,3.333333333333334,1.1111111111111112,-0.6666666666666666,4.888888888888889,2.1081851067789197,0.771649304961094
3,5,10,-2,6,1,5,316,449,-5.666666666666667,3.333333333333334,1.0,-0.6666666666666666,5.0,2.081665999466133,0.8257418583505538
3,6,1,-2,-2,1,-1,351,450,0.0,5.0,5.0,0.0,0.0,3.1622776601683795,0.0
3,6,2,-2,-2,0,-2,265,451,0.3333333333333333,5.0,3.333333333333334,0.0,-0.3333333333333333,2.886751345948129,0.410326119149236
3,6,3,-2,-2,1,-3,260,452,-0.3333333333333333,3.333333333333334,3.333333333333334,-0.6666666666666666,-0.3333333333333333,2.5819888974716116,0.0
3,6,4,-2,-2,0,0,388,453,0.33333333333333337,3.333333333333334,2.5000000000000004,-0.6666666666666666,-1.0,2.41522945769824,0.24460302826636404
3,6,5,-2,-2,0,-2,283,454,0.5,2.5000000000000004,2.5000000000000004,-0.49999999999999994,-1.0,2.23606797749979,0.0
3,6,6,-2,-2,1,-5,316,455,0.19999999999999996,2.0,2.5000000000000004,-0.8,-1.0,2.1213203435596424,-0.16692526771109462
3,6,7,-2,-2,0,-4,297,456,1.0000000000000002,2.0,2.0,-0.8,-1.8000000000000003,2.0,0.0
3,6,8,-2,-2,1,-3,319,457,0.4666666666666668,1.6666666666666667,2.0,-1.3333333333333335,-1.8000000000000003,1.9148542155126762,-0.12321911363728955
3,6,9,-2,-2,0,-1,321,458,0.6666666666666665,1.6666666666666667,1.6666666666666667,-1.3333333333333335,-2.0,1.8257418583505538,0.0
3,6,10,-2,-2,1,-1,358,459,0.7142857142857142,1.4285714285714286,1.6666666666666667,-1.2857142857142858,-2.0,1.7593288763724921,-0.09576583940141203
3,7,1,1,8,0,0,351,460,0.0,5.0,5.0,0.0,0.0,3.1622776601683795,0.0
3,7,2,1,8,1,9,263,461,0.0,3.333333333333334,5.0,0.0,0.0,2.886751345948129,-0.410326119149236
3,7,3,1,8,1,8,312,462,-3.0,3.333333333333334,3.333333333333334,0.0,3.0,2.5819888974716116,0.0
3,7,4,1,8,1,7,334,463,-4.25,3.333333333333334,2.5000000000000004,0.0,4.25,2.41522945769824,0.24460302826636404
3,7,5,1,8,1,8,250,464,-4.8,3.333333333333334,2.0,0.0,4.8,2.3094010767585034,0.41152829597745866
3,7,6,1,8,1,9,255,465,-5.333333333333333,3.333333333333334,1.6666666666666667,0.0,5.333333333333333,2.23606797749979,0.5347474096147482
3,7,7,1,8,1,6,277,466,-5.857142857142857,3.333333333333334,1.4285714285714286,0.0,5.857142857142857,2.182178902359924,0.6305132490161602
3,7,8,1,8,1,9,226,467,-5.875,3.333333333333334,1.25,0.0,5.875,2.1408720964441885,0.7077078696006589
3,7,9,1,8,1,9,244,468,-6.222222222222222,3.333333333333334,1.1111111111111112,0.0,6.222222222222222,2.1081851067789197,0.771649304961094
3,7,10,1,8,1,7,277,469,-6.5,3.333333333333334,1.0,0.0,6.5,2.081665999466133,0.8257418583505538
3,8,1,-2,-7,1,-6,556,470,0.0,5.0,5.0,0.0,0.0,3.1622776601683795,0.0
3,8,2,-2,-7,0,-2,287,471,2.0,5.0,3.333333333333334,0.0,-2.0,2.886751345948129,0.410326119149236
3,8,3,-2,-7,0,-4,299,472,1.3333333333333335,3.333333333333334,3.333333333333334,-0.6666666666666666,-2.0,2.5819888974716116,0.0
3,8,4,-2,-7,1,-6,290,473,0.4999999999999998,2.5000000000000004,3.333333333333334,-1.5000000000000002,-2.0,2.41522945769824,-0.24460302826636404
3,8,5,-2,-7,0,-1,285,474,1.4999999999999998,2.5000000000000004,2.5000000000000004,-1.5000000000000002,-3.0,2.23606797749979,0.0
3,8,6,-2,-7,1,-6,291,475,1.5999999999999999,2.0,2.5000000000000004,-1.4000000000000001,-3.0,2.1213203435596424,-0.16692526771109462
3,8,7,-2,-7,0,-3,274,476,2.2,2.0,2.0,-1.4000000000000001,-3.6,2.0,0.0
3,8,8,-2,-7,0,-2,269,477,1.9333333333333333,1.6666666666666667,2.0,-1.6666666666666667,-3.6,1.9148542155126762,-0.12321911363728955
3,8,9,-2,-7,0,-3,235,478,1.8857142857142857,1.4285714285714286,2.0,-1.7142857142857144,-3.6,1.851640199545103,-0.21898495303870158
3,8,10,-2,-7,0,-2,275,479,1.725,1.25,2.0,-1.875,-3.6,1.8027756377319946,-0.29617957362320024
3,9,1,-6,2,1,3,589,480,0.0,5.0,5.0,0.0,0.0,3.1622776601683795,0.0
3,9,2,-6,2,0,-6,300,481,-1.0,5.0,3.333333333333334,0.0,1.0,2.886751345948129,0.410326119149236
3,9,3,-6,2,1,3,266,482,-3.0,3.333333333333334,3.333333333333334,-2.0,1.0,2.5819888974716116,0.0
3,9,4,-6,2,1,1,225,483,-3.5,3.333333333333334,2.5000000000000004,-2.0,1.5,2.41522945769824,0.24460302826636404
3,9,5,-6,2,1,2,223,484,-3.4,3.333333333333334,2.0,-2.0,1.4,2.3094010767585034,0.41152829597745866
3,9,6,-6,2,1,2,226,485,-3.5,3.333333333333334,1.6666666666666667,-2.0,1.5,2.23606797749979,0.5347474096147482
3,9,7,-6,2,1,3,230,486,-3.571428571428571,3.333333333333334,1.4285714285714286,-2.0,1.5714285714285714,2.182178902359924,0.6305132490161602
3,9,8,-6,2,1,4,218,487,-3.75,3.333333333333334,1.25,-2.0,1.75,2.1408720964441885,0.7077078696006589
3,9,9,-6,2,1,3,266,488,-4.0,3.333333333333334,1.1111111111111112,-2.0,2.0,2.1081851067789197,0.771649304961094
3,9,10,-6,2,1,3,266,489,-4.1,3.333333333333334,1.0,-2.0,2.1,2.081665999466133,0.8257418583505538
3,10,1,6,-1,0,7,408,490,0.0,5.0,5.0,0.0,0.0,3.1622776601683795,0.0
3,10,2,6,-1,1,0,263,491,2.333333333333333,3.333333333333334,5.0,2.333333333333333,0.0,2.886751345948129,-0.410326119149236
3,10,3,6,-1,0,7,285,492,2.333333333333333,3.333333333333334,3.333333333333334,2.333333333333333,0.0,2.5819888974716116,0.0
3,10,4,6,-1,0,6,222,493,3.5,2.5000000000000004,3.333333333333334,3.5,0.0,2.41522945769824,-0.24460302826636404
3,10,5,6,-1,0,6,250,494,4.0,2.0,3.333333333333334,4.0,0.0,2.3094010767585034,-0.41152829597745866
3,10,6,6,-1,0,7,318,495,4.333333333333333,1.6666666666666667,3.333333333333334,4.333333333333333,0.0,2.23606797749979,-0.5347474096147482
3,10,7,6,-1,0,5,299,496,4.714285714285714,1.4285714285714286,3.333333333333334,4.714285714285714,0.0,2.182178902359924,-0.6305132490161602
3,10,8,6,-1,0,8,251,497,4.75,1.25,3.333333333333334,4.75,0.0,2.1408720964441885,-0.7077078696006589
3,10,9,6,-1,0,5,262,498,5.111111111111111,1.1111111111111112,3.333333333333334,5.111111111111111,0.0,2.1081851067789197,-0.771649304961094
3,10,10,6,-1,0,5,292,499,5.1,1.0,3.333333333333334,5.1,0.0,2.081665999466133,-0.8257418583505538
3,11,1,-4,5,1,6,398,500,0.0,5.0,5.0,0.0,0.0,3.1622776601683795,0.0
3,11,2,-4,5,0,-4,282,501,-2.0,5.0,3.333333333333334,0.0,2.0,2.886751345948129,0.410326119149236
3,11,3,-4,5,1,5,290,502,-3.333333333333333,3.333333333333334,3.333333333333334,-1.3333333333333333,2.0,2.5819888974716116,0.0
3,11,4,-4,5,1,4,207,503,-4.083333333333333,3.333333333333334,2.5000000000000004,-1.3333333333333333,2.75,2.41522945769824,0.24460302826636404
3,11,5,-4,5,1,5,223,504,-4.333333333333333,3.333333333333334,2.0,-1.3333333333333333,3.0,2.3094010767585034,0.41152829597745866
3,11,6,-4,5,1,5,224,505,-4.666666666666667,3.333333333333334,1.6666666666666667,-1.3333333333333333,3.3333333333333335,2.23606797749979,0.5347474096147482
3,11,7,-4,5,1,6,204,506,-4.904761904761905,3.333333333333334,1.4285714285714286,-1.3333333333333333,3.5714285714285716,2.182178902359924,0.6305132490161602
3,11,8,-4,5,1,5,272,507,-5.208333333333333,3.333333333333334,1.25,-1.3333333333333333,3.875,2.1408720964441885,0.7077078696006589
3,11,9,-4,5,1,7,209,508,-5.333333333333333,3.333333333333334,1.1111111111111112,-1.3333333333333333,4.0,2.1081851067789197,0.771649304961094
3,11,10,-4,5,1,5,240,509,-5.633333333333333,3.333333333333334,1.0,-1.3333333333333333,4.3,2.081665999466133,0.8257418583505538
3,12,1,2,-10,1,-8,387,510,0.0,5.0,5.0,0.0,0.0,3.1622776601683795,0.0
3,12,2,2,-10,0,2,266,511,2.6666666666666665,5.0,3.333333333333334,0.0,-2.6666666666666665,2.886751345948129,0.410326119149236
3,12,3,2,-10,0,1,245,512,3.333333333333333,3.333333333333334,3.333333333333334,0.6666666666666666,-2.6666666666666665,2.5819888974716116,0.0
3,12,4,2,-10,0,2,251,513,3.4166666666666665,2.5000000000000004,3.333333333333334,0.75,-2.6666666666666665,2.41522945769824,-0.24460302826636404
3,12,5,2,-10,0,1,262,514,3.6666666666666665,2.0,3.333333333333334,1.0,-2.6666666666666665,2.3094010767585034,-0.41152829597745866
3,12,6,2,-10,0,4,228,515,3.6666666666666665,1.6666666666666667,3.333333333333334,1.0,-2.6666666666666665,2.23606797749979,-0.5347474096147482
3,12,7,2,-10,0,2,274,516,4.095238095238095,1.4285714285714286,3.333333333333334,1.4285714285714286,-2.6666666666666665,2.182178902359924,-0.6305132490161602
3,12,8,2,-10,0,-1,288,517,4.166666666666666,1.25,3.333333333333334,1.5,-2.6666666666666665,2.1408720964441885,-0.7077078696006589
3,12,9,2,-10,0,4,300,518,3.888888888888889,1.1111111111111112,3.333333333333334,1.2222222222222223,-2.6666666666666665,2.1081851067789197,-0.771649304961094
3,12,10,2,-10,0,1,568,519,4.166666666666666,1.0,3.333333333333334,1.5,-2.6666666666666665,2.081665999466133,-0.8257418583505538
3,13,1,0,7,0,-1,463,520,0.0,5.0,5.0,0.0,0.0,3.1622776601683795,0.0
3,13,2,0,7,1,7,261,521,-0.3333333333333333,3.333333333333334,5.0,-0.3333333333333333,0.0,2.886751345948129,-0.410326119149236
3,13,3,0,7,1,9,250,522,-2.6666666666666665,3.333333333333334,3.333333333333334,-0.3333333333333333,2.333333333333333,2.5819888974716116,0.0
3,13,4,0,7,1,8,223,523,-4.333333333333333,3.333333333333334,2.5000000000000004,-0.3333333333333333,4.0,2.41522945769824,0.24460302826636404
3,13,5,0,7,1,7,226,524,-5.133333333333333,3.333333333333334,2.0,-0.3333333333333333,4.8,2.3094010767585034,0.41152829597745866
3,13,6,0,7,1,6,229,525,-5.499999999999999,3.333333333333334,1.6666666666666667,-0.3333333333333333,5.166666666666666,2.23606797749979,0.5347474096147482
3,13,7,0,7,1,7,271,526,-5.619047619047619,3.333333333333334,1.4285714285714286,-0.3333333333333333,5.285714285714286,2.182178902359924,0.6305132490161602
3,13,8,0,7,1,7,284,527,-5.833333333333333,3.333333333333334,1.25,-0.3333333333333333,5.5,2.1408720964441885,0.7077078696006589
3,13,9,0,7,1,6,247,528,-6.0,3.333333333333334,1.1111111111111112,-0.3333333333333333,5.666666666666667,2.1081851067789197,0.771649304961094
3,13,10,0,7,1,8,250,529,-6.033333333333333,3.333333333333334,1.0,-0.3333333333333333,5.7,2.081665999466133,0.8257418583505538
3,14,1,3,0,1,1,507,530,0.0,5.0,5.0,0.0,0.0,3.1622776601683795,0.0
3,14,2,3,0,0,3,279,531,-0.3333333333333333,5.0,3.333333333333334,0.0,0.3333333333333333,2.886751345948129,0.410326119149236
3,14,3,3,0,0,4,243,532,0.6666666666666667,3.333333333333334,3.333333333333334,1.0,0.3333333333333333,2.5819888974716116,0.0
3,14,4,3,0,0,3,201,533,1.416666666666667,2.5000000000000004,3.333333333333334,1.7500000000000002,0.3333333333333333,2.41522945769824,-0.24460302826636404
3,14,5,3,0,0,4,268,534,1.6666666666666667,2.0,3.333333333333334,2.0,0.3333333333333333,2.3094010767585034,-0.41152829597745866
3,14,6,3,0,0,3,237,535,2.0,1.6666666666666667,3.333333333333334,2.3333333333333335,0.3333333333333333,2.23606797749979,-0.5347474096147482
3,14,7,3,0,0,3,236,536,2.0952380952380953,1.4285714285714286,3.333333333333334,2.428571428571429,0.3333333333333333,2.182178902359924,-0.6305132490161602
3,14,8,3,0,0,3,242,537,2.1666666666666665,1.25,3.333333333333334,2.5,0.3333333333333333,2.1408720964441885,-0.7077078696006589
3,14,9,3,0,0,4,251,538,2.222222222222222,1.1111111111111112,3.333333333333334,2.5555555555555554,0.3333333333333333,2.1081851067789197,-0.771649304961094
3,14,10,3,0,0,4,248,539,2.3666666666666663,1.0,3.333333333333334,2.6999999999999997,0.3333333333333333,2.081665999466133,-0.8257418583505538
3,15,1,5,3,1,3,365,540,0.0,5.0,5.0,0.0,0.0,3.1622776601683795,0.0
3,15,2,5,3,0,6,253,541,-1.0,5.0,3.333333333333334,0.0,1.0,2.886751345948129,0.410326119149236
3,15,3,5,3,0,6,306,542,1.0,3.333333333333334,3.333333333333334,2.0,1.0,2.5819888974716116,0.0
3,15,4,5,3,0,6,248,543,2.0,2.5000000000000004,3.333333333333334,3.0,1.0,2.41522945769824,-0.24460302826636404
3,15,5,5,3,0,4,225,544,2.6,2.0,3.333333333333334,3.6,1.0,2.3094010767585034,-0.41152829597745866
3,15,6,5,3,0,4,258,545,2.666666666666667,1.6666666666666667,3.333333333333334,3.666666666666667,1.0,2.23606797749979,-0.5347474096147482
3,15,7,5,3,0,6,237,546,2.7142857142857144,1.4285714285714286,3.333333333333334,3.7142857142857144,1.0,2.182178902359924,-0.6305132490161602
3,15,8,5,3,0,5,266,547,3.0,1.25,3.333333333333334,4.0,1.0,2.1408720964441885,-0.7077078696006589
3,15,9,5,3,0,7,273,548,3.1111111111111107,1.1111111111111112,3.333333333333334,4.111111111111111,1.0,2.1081851067789197,-0.771649304961094
3,15,10,5,3,0,4,360,549,3.3999999999999995,1.0,3.333333333333334,4.3999999999999995,1.0,2.081665999466133,-0.8257418583505538
3,16,1,4,4,1,5,615,550,0.0,5.0,5.0,0.0,0.0,3.1622776601683795,0.0
3,16,2,4,4,0,3,237,551,-1.6666666666666665,5.0,3.333333333333334,0.0,1.6666666666666665,2.886751345948129,0.410326119149236
3,16,3,4,4,1,5,281,552,-0.6666666666666665,3.333333333333334,3.333333333333334,1.0,1.6666666666666665,2.5819888974716116,0.0
3,16,4,4,4,1,3,203,553,-1.5,3.333333333333334,2.5000000000000004,1.0,2.5,2.41522945769824,0.24460302826636404
3,16,5,4,4,1,4,239,554,-1.6,3.333333333333334,2.0,1.0,2.6,2.3094010767585034,0.41152829597745866
3,16,6,4,4,1,5,216,555,-1.8333333333333335,3.333333333333334,1.6666666666666667,1.0,2.8333333333333335,2.23606797749979,0.5347474096147482
3,16,7,4,4,1,3,246,556,-2.1428571428571432,3.333333333333334,1.4285714285714286,1.0,3.1428571428571432,2.182178902359924,0.6305132490161602
3,16,8,4,4,1,3,266,557,-2.1250000000000004,3.333333333333334,1.25,1.0,3.1250000000000004,2.1408720964441885,0.7077078696006589
3,16,9,4,4,1,4,245,558,-2.1111111111111116,3.333333333333334,1.1111111111111112,1.0,3.1111111111111116,2.1081851067789197,0.771649304961094
3,16,10,4,4,1,5,275,559,-2.2000000000000006,3.333333333333334,1.0,1.0,3.2000000000000006,2.081665999466133,0.8257418583505538
3,17,1,6,-3,1,-4,417,560,0.0,5.0,5.0,0.0,0.0,3.1622776601683795,0.0
3,17,2,6,-3,0,5,255,561,1.3333333333333333,5.0,3.333333333333334,0.0,-1.3333333333333333,2.886751345948129,0.410326119149236
3,17,3,6,-3,0,6,264,562,3.0,3.333333333333334,3.333333333333334,1.6666666666666665,-1.3333333333333333,2.5819888974716116,0.0
3,17,4,6,-3,0,6,245,563,4.083333333333333,2.5000000000000004,3.333333333333334,2.75,-1.3333333333333333,2.41522945769824,-0.24460302826636404
3,17,5,6,-3,0,7,255,564,4.733333333333333,2.0,3.333333333333334,3.4000000000000004,-1.3333333333333333,2.3094010767585034,-0.41152829597745866
3,17,6,6,-3,0,5,275,565,5.333333333333333,1.6666666666666667,3.333333333333334,4.0,-1.3333333333333333,2.23606797749979,-0.5347474096147482
3,17,7,6,-3,0,5,264,566,5.476190476190476,1.4285714285714286,3.333333333333334,4.142857142857143,-1.3333333333333333,2.182178902359924,-0.6305132490161602
3,17,8,6,-3,0,7,287,567,5.583333333333333,1.25,3.333333333333334,4.25,-1.3333333333333333,2.1408720964441885,-0.7077078696006589
3,17,9,6,-3,0,5,261,568,5.888888888888888,1.1111111111111112,3.333333333333334,4.555555555555555,-1.3333333333333333,2.1081851067789197,-0.771649304961094
3,17,10,6,-3,0,5,241,569,5.933333333333333,1.0,3.333333333333334,4.6,-1.3333333333333333,2.081665999466133,-0.8257418583505538
3,18,1,-8,-3,0,-9,384,570,0.0,5.0,5.0,0.0,0.0,3.1622776601683795,0.0
3,18,2,-8,-3,1,0,233,571,-3.0,3.333333333333334,5.0,-3.0,0.0,2.886751345948129,-0.410326119149236
3,18,3,-8,-3,1,-2,225,572,-3.0,3.333333333333334,3.333333333333334,-3.0,0.0,2.5819888974716116,0.0
3,18,4,-8,-3,1,-4,214,573,-2.5,3.333333333333334,2.5000000000000004,-3.0,-0.5000000000000001,2.41522945769824,0.24460302826636404
3,18,5,-8,-3,1,-4,190,574,-1.7999999999999998,3.333333333333334,2.0,-3.0,-1.2000000000000002,2.3094010767585034,0.41152829597745866
3,18,6,-8,-3,0,-8,256,575,-1.3333333333333333,3.333333333333334,1.6666666666666667,-3.0,-1.6666666666666667,2.23606797749979,0.5347474096147482
3,18,7,-8,-3,1,-5,234,576,-2.583333333333333,2.5000000000000004,1.6666666666666667,-4.25,-1.6666666666666667,2.041241452319315,0.29014438134838416
3,18,8,-8,-3,1,-5,209,577,-2.107142857142857,2.5000000000000004,1.4285714285714286,-4.25,-2.142857142857143,1.9820624179302297,0.3859102207497962
3,18,9,-8,-3,1,-3,220,578,-1.75,2.5000000000000004,1.25,-4.25,-2.5,1.9364916731037085,0.46310484133429486
3,18,10,-8,-3,1,-5,244,579,-1.6944444444444446,2.5000000000000004,1.1111111111111112,-4.25,-2.5555555555555554,1.90029237516523,0.5270462766947299
3,19,1,4,-4,1,-3,573,580,0.0,5.0,5.0,0.0,0.0,3.1622776601683795,0.0
3,19,2,4,-4,0,4,231,581,1.0,5.0,3.333333333333334,0.0,-1.0,2.886751345948129,0.410326119149236
3,19,3,4,-4,0,5,238,582,2.333333333333333,3.333333333333334,3.333333333333334,1.3333333333333333,-1.0,2.5819888974716116,0.0
3,19,4,4,-4,0,4,255,583,3.25,2.5000000000000004,3.333333333333334,2.25,-1.0,2.41522945769824,-0.24460302826636404
3,19,5,4,-4,0,6,267,584,3.6,2.0,3.333333333333334,2.6,-1.0,2.3094010767585034,-0.41152829597745866
3,19,6,4,-4,0,4,235,585,4.166666666666667,1.6666666666666667,3.333333333333334,3.166666666666667,-1.0,2.23606797749979,-0.5347474096147482
3,19,7,4,-4,0,2,226,586,4.2857142857142865,1.4285714285714286,3.333333333333334,3.285714285714286,-1.0,2.182178902359924,-0.6305132490161602
3,19,8,4,-4,0,3,261,587,4.125,1.25,3.333333333333334,3.1250000000000004,-1.0,2.1408720964441885,-0.7077078696006589
3,19,9,4,-4,0,3,256,588,4.111111111111112,1.1111111111111112,3.333333333333334,3.1111111111111116,-1.0,2.1081851067789197,-0.771649304961094
3,19,10,4,-4,0,5,260,589,4.1000000000000005,1.0,3.333333333333334,3.1000000000000005,-1.0,2.081665999466133,-0.8257418583505538
3,20,1,5,-6,1,-6,380,590,0.0,5.0,5.0,0.0,0.0,3.1622776601683795,0.0
3,20,2,5,-6,0,5,254,591,2.0,5.0,3.333333333333334,0.0,-2.0,2.886751345948129,0.410326119149236
3,20,3,5,-6,0,4,230,592,3.6666666666666665,3.333333333333334,3.333333333333334,1.6666666666666665,-2.0,2.5819888974716116,0.0
3,20,4,5,-6,0,4,224,593,4.25,2.5000000000000004,3.333333333333334,2.25,-2.0,2.41522945769824,-0.24460302826636404
3,20,5,5,-6,0,5,244,594,4.6,2.0,3.333333333333334,2.6,-2.0,2.3094010767585034,-0.41152829597745866
3,20,6,5,-6,0,4,233,595,5.0,1.6666666666666667,3.333333333333334,3.0,-2.0,2.23606797749979,-0.5347474096147482
3,20,7,5,-6,0,6,254,596,5.142857142857142,1.4285714285714286,3.333333333333334,3.142857142857143,-2.0,2.182178902359924,-0.6305132490161602
3,20,8,5,-6,0,5,245,597,5.5,1.25,3.333333333333334,3.5,-2.0,2.1408720964441885,-0.7077078696006589
3,20,9,5,-6,0,7,252,598,5.666666666666666,1.1111111111111112,3.333333333333334,3.6666666666666665,-2.0,2.1081851067789197,-0.771649304961094
3,20,10,5,-6,0,4,237,599,6.0,1.0,3.333333333333334,4.0,-2.0,2.081665999466133,-0.8257418583505538
4,1,1,3,4,0,4,1135,600,0.0,5.0,5.0,0.0,0.0,3.1622776601683795,0.0
4,1,2,3,4,0,2,742,601,1.3333333333333333,3.333333333333334,5.0,1.3333333333333333,0.0,2.886751345948129,-0.410326119149236
4,1,3,3,4,1,4,609,602,1.5,2.5000000000000004,5.0,1.5,0.0,2.7386127875258306,-0.6549291474156
4,1,4,3,4,1,3,412,603,0.16666666666666674,2.5000000000000004,3.333333333333334,1.5,1.3333333333333333,2.41522945769824,-0.24460302826636404
4,1,5,3,4,1,3,541,604,-0.25,2.5000000000000004,2.5000000000000004,1.5,1.75,2.23606797749979,0.0
4,1,6,3,4,1,5,431,605,-0.5,2.5000000000000004,2.0,1.5,2.0,2.1213203435596424,0.16692526771109462
4,1,7,3,4,1,3,482,606,-1.0,2.5000000000000004,1.6666666666666667,1.5,2.5,2.041241452319315,0.29014438134838416
4,1,8,3,4,0,3,393,607,-1.0714285714285716,2.5000000000000004,1.4285714285714286,1.5,2.5714285714285716,1.9820624179302297,0.3859102207497962
4,1,9,3,4,1,4,391,608,-0.7714285714285716,2.0,1.4285714285714286,1.8,2.5714285714285716,1.851640199545103,0.21898495303870158
4,1,10,3,4,1,3,391,609,-0.95,2.0,1.25,1.8,2.75,1.8027756377319946,0.29617957362320024
4,2,1,-2,-1,0,-2,611,610,0.0,5.0,5.0,0.0,0.0,3.1622776601683795,0.0
4,2,2,-2,-1,1,-1,350,611,-0.6666666666666666,3.333333333333334,5.0,-0.6666666666666666,0.0,2.886751345948129,-0.410326119149236
4,2,3,-2,-1,1,-2,544,612,-0.3333333333333333,3.333333333333334,3.333333333333334,-0.6666666666666666,-0.3333333333333333,2.5819888974716116,0.0
4,2,4,-2,-1,1,0,403,613,0.08333333333333348,3.333333333333334,2.5000000000000004,-0.6666666666666666,-0.7500000000000001,2.41522945769824,0.24460302826636404
4,2,5,-2,-1,1,-1,550,614,-0.06666666666666654,3.333333333333334,2.0,-0.6666666666666666,-0.6000000000000001,2.3094010767585034,0.41152829597745866
4,2,6,-2,-1,0,-3,1066,615,1.1102230246251565e-16,3.333333333333334,1.6666666666666667,-0.6666666666666666,-0.6666666666666667,2.23606797749979,0.5347474096147482
4,2,7,-2,-1,0,-1,367,616,-0.5833333333333333,2.5000000000000004,1.6666666666666667,-1.25,-0.6666666666666667,2.041241452319315,0.29014438134838416
4,2,8,-2,-1,0,-1,485,617,-0.5333333333333332,2.0,1.6666666666666667,-1.2,-0.6666666666666667,1.9148542155126762,0.12321911363728955
4,2,9,-2,-1,0,-1,520,618,-0.4999999999999998,1.6666666666666667,1.6666666666666667,-1.1666666666666665,-0.6666666666666667,1.8257418583505538,0.0
4,2,10,-2,-1,1,-1,760,619,-0.47619047619047605,1.4285714285714286,1.6666666666666667,-1.1428571428571428,-0.6666666666666667,1.7593288763724921,-0.09576583940141203
4,3,1,7,8,0,8,1119,620,0.0,5.0,5.0,0.0,0.0,3.1622776601683795,0.0
4,3,2,7,8,0,5,377,621,2.6666666666666665,3.333333333333334,5.0,2.6666666666666665,0.0,2.886751345948129,-0.410326119149236
4,3,3,7,8,0,8,478,622,3.25,2.5000000000000004,5.0,3.25,0.0,2.7386127875258306,-0.6549291474156
4,3,4,7,8,0,8,446,623,4.2,2.0,5.0,4.2,0.0,2.6457513110645907,-0.8218544151266947
4,3,5,7,8,0,6,470,624,4.833333333333334,1.6666666666666667,5.0,4.833333333333334,0.0,2.581988897471611,-0.9450735287639842
4,3,6,7,8,1,8,607,625,5.000000000000001,1.4285714285714286,5.0,5.000000000000001,0.0,2.53546276418555,-1.0408393681653962
4,3,7,7,8,1,8,697,626,2.3333333333333344,1.4285714285714286,3.333333333333334,5.000000000000001,2.6666666666666665,2.182178902359924,-0.6305132490161602
4,3,8,7,8,1,8,447,627,1.0000000000000009,1.4285714285714286,2.5000000000000004,5.000000000000001,4.0,1.9820624179302297,-0.3859102207497962
4,3,9,7,8,1,7,415,628,0.20000000000000107,1.4285714285714286,2.0,5.000000000000001,4.8,1.851640199545103,-0.21898495303870158
4,3,10,7,8,1,8,399,629,-0.1666666666666652,1.4285714285714286,1.6666666666666667,5.000000000000001,5.166666666666666,1.7593288763724921,-0.09576583940141203
4,4,1,-6,5,1,4,479,630,0.0,5.0,5.0,0.0,0.0,3.1622776601683795,0.0
4,4,2,-6,5,0,-6,407,631,-1.3333333333333333,5.0,3.333333333333334,0.0,1.3333333333333333,2.886751345948129,0.410326119149236
4,4,3,-6,5,1,7,489,632,-3.333333333333333,3.333333333333334,3.333333333333334,-2.0,1.3333333333333333,2.5819888974716116,0.0
4,4,4,-6,5,1,5,435,633,-4.75,3.333333333333334,2.5000000000000004,-2.0,2.75,2.41522945769824,0.24460302826636404
4,4,5,-6,5,1,5,788,634,-5.2,3.333333333333334,2.0,-2.0,3.2,2.3094010767585034,0.41152829597745866
4,4,6,-6,5,1,4,385,635,-5.5,3.333333333333334,1.6666666666666667,-2.0,3.5,2.23606797749979,0.5347474096147482
4,4,7,-6,5,1,4,535,636,-5.571428571428571,3.333333333333334,1.4285714285714286,-2.0,3.5714285714285716,2.182178902359924,0.6305132490161602
4,4,8,-6,5,1,4,444,637,-5.625,3.333333333333334,1.25,-2.0,3.625,2.1408720964441885,0.7077078696006589
4,4,9,-6,5,1,6,412,638,-5.666666666666666,3.333333333333334,1.1111111111111112,-2.0,3.6666666666666665,2.1081851067789197,0.771649304961094
4,4,10,-6,5,1,5,423,639,-5.9,3.333333333333334,1.0,-2.0,3.9,2.081665999466133,0.8257418583505538
4,5,1,-5,-4,0,-4,1313,640,0.0,5.0,5.0,0.0,0.0,3.1622776601683795,0.0
4,5,2,-5,-4,1,-4,356,641,-1.3333333333333333,3.333333333333334,5.0,-1.3333333333333333,0.0,2.886751345948129,-0.410326119149236
4,5,3,-5,-4,0,-5,650,642,0.0,3.333333333333334,3.333333333333334,-1.3333333333333333,-1.3333333333333333,2.5819888974716116,0.0
4,5,4,-5,-4,1,-4,1082,643,-0.9166666666666667,2.5000000000000004,3.333333333333334,-2.25,-1.3333333333333333,2.41522945769824,-0.24460302826636404
4,5,5,-5,-4,1,-2,523,644,-0.25,2.5000000000000004,2.5000000000000004,-2.25,-2.0,2.23606797749979,0.0
4,5,6,-5,-4,1,-4,389,645,-0.25,2.5000000000000004,2.0,-2.25,-2.0,2.1213203435596424,0.16692526771109462
4,5,7,-5,-4,1,-4,1051,646,0.08333333333333348,2.5000000000000004,1.6666666666666667,-2.25,-2.3333333333333335,2.041241452319315,0.29014438134838416
4,5,8,-5,-4,1,-6,352,647,0.3214285714285716,2.5000000000000004,1.4285714285714286,-2.25,-2.5714285714285716,1.9820624179302297,0.3859102207497962
4,5,9,-5,-4,1,-4,612,648,0.75,2.5000000000000004,1.25,-2.25,-3.0,1.9364916731037085,0.46310484133429486
4,5,10,-5,-4,1,-4,348,649,0.8611111111111112,2.5000000000000004,1.1111111111111112,-2.25,-3.111111111111111,1.90029237516523,0.5270462766947299
4,6,1,-9,15,0,-9,913,650,0.0,5.0,5.0,0.0,0.0,3.1622776601683795,0.0
4,6,2,-9,15,1,14,379,651,-3.0,3.333333333333334,5.0,-3.0,0.0,2.886751345948129,-0.410326119149236
4,6,3,-9,15,1,16,384,652,-7.666666666666666,3.333333333333334,3.333333333333334,-3.0,4.666666666666666,2.5819888974716116,0.0
4,6,4,-9,15,1,16,391,653,-10.5,3.333333333333334,2.5000000000000004,-3.0,7.5,2.41522945769824,0.24460302826636404
4,6,5,-9,15,1,14,420,654,-12.200000000000001,3.333333333333334,2.0,-3.0,9.200000000000001,2.3094010767585034,0.41152829597745866
4,6,6,-9,15,1,15,545,655,-13.0,3.333333333333334,1.6666666666666667,-3.0,10.0,2.23606797749979,0.5347474096147482
4,6,7,-9,15,1,14,376,656,-13.714285714285715,3.333333333333334,1.4285714285714286,-3.0,10.714285714285715,2.182178902359924,0.6305132490161602
4,6,8,-9,15,1,14,349,657,-14.125,3.333333333333334,1.25,-3.0,11.125,2.1408720964441885,0.7077078696006589
4,6,9,-9,15,1,16,389,658,-14.444444444444445,3.333333333333334,1.1111111111111112,-3.0,11.444444444444445,2.1081851067789197,0.771649304961094
4,6,10,-9,15,1,16,387,659,-14.9,3.333333333333334,1.0,-3.0,11.9,2.081665999466133,0.8257418583505538
4,7,1,6,16,1,14,600,660,0.0,5.0,5.0,0.0,0.0,3.1622776601683795,0.0
4,7,2,6,16,1,15,354,661,-4.666666666666666,5.0,3.333333333333334,0.0,4.666666666666666,2.886751345948129,0.410326119149236
4,7,3,6,16,1,16,355,662,-7.25,5.0,2.5000000000000004,0.0,7.25,2.7386127875258306,0.6549291474156
4,7,4,6,16,1,16,380,663,-9.0,5.0,2.0,0.0,9.0,2.6457513110645907,0.8218544151266947
4,7,5,6,16,1,17,367,664,-10.166666666666666,5.0,1.6666666666666667,0.0,10.166666666666666,2.581988897471611,0.9450735287639842
4,7,6,6,16,1,16,490,665,-11.142857142857142,5.0,1.4285714285714286,0.0,11.142857142857142,2.53546276418555,1.0408393681653962
4,7,7,6,16,1,16,384,666,-11.75,5.0,1.25,0.0,11.75,2.5,1.118033988749895
4,7,8,6,16,1,15,391,667,-12.222222222222221,5.0,1.1111111111111112,0.0,12.222222222222221,2.4720661623652207,1.18197542411033
4,7,9,6,16,1,18,370,668,-12.5,5.0,1.0,0.0,12.5,2.449489742783178,1.2360679774997898
4,7,10,6,16,1,15,374,669,-13.0,5.0,0.9090909090909091,0.0,13.0,2.4308621740219887,1.2826053882541975
4,8,1,-3,-4,0,-4,367,670,0.0,5.0,5.0,0.0,0.0,3.1622776601683795,0.0
4,8,2,-3,-4,1,-3,542,671,-1.3333333333333333,3.333333333333334,5.0,-1.3333333333333333,0.0,2.886751345948129,-0.410326119149236
4,8,3,-3,-4,1,-4,529,672,-0.33333333333333326,3.333333333333334,3.333333333333334,-1.3333333333333333,-1.0,2.5819888974716116,0.0
4,8,4,-3,-4,1,-2,474,673,0.41666666666666696,3.333333333333334,2.5000000000000004,-1.3333333333333333,-1.7500000000000002,2.41522945769824,0.24460302826636404
4,8,5,-3,-4,1,-4,393,674,0.466666666666667,3.333333333333334,2.0,-1.3333333333333333,-1.8000000000000003,2.3094010767585034,0.41152829597745866
4,8,6,-3,-4,0,-2,519,675,0.8333333333333337,3.333333333333334,1.6666666666666667,-1.3333333333333333,-2.166666666666667,2.23606797749979,0.5347474096147482
4,8,7,-3,-4,0,-3,998,676,0.666666666666667,2.5000000000000004,1.6666666666666667,-1.5,-2.166666666666667,2.041241452319315,0.29014438134838416
4,8,8,-3,-4,0,-4,411,677,0.3666666666666669,2.0,1.6666666666666667,-1.8,-2.166666666666667,1.9148542155126762,0.12321911363728955
4,8,9,-3,-4,1,-3,387,678,0.0,1.6666666666666667,1.6666666666666667,-2.166666666666667,-2.166666666666667,1.8257418583505538,0.0
4,8,10,-3,-4,1,-5,435,679,0.11904761904761907,1.6666666666666667,1.4285714285714286,-2.166666666666667,-2.285714285714286,1.7593288763724921,0.09576583940141203
4,9,1,9,-5,0,9,1241,680,0.0,5.0,5.0,0.0,0.0,3.1622776601683795,0.0
4,9,2,9,-5,0,8,1121,681,3.0,3.333333333333334,5.0,3.0,0.0,2.886751345948129,-0.410326119149236
4,9,3,9,-5,0,10,332,682,4.25,2.5000000000000004,5.0,4.25,0.0,2.7386127875258306,-0.6549291474156
4,9,4,9,-5,0,8,404,683,5.4,2.0,5.0,5.4,0.0,2.6457513110645907,-0.8218544151266947
4,9,5,9,-5,0,9,387,684,5.833333333333334,1.6666666666666667,5.0,5.833333333333334,0.0,2.581988897471611,-0.9450735287639842
4,9,6,9,-5,0,10,366,685,6.2857142857142865,1.4285714285714286,5.0,6.2857142857142865,0.0,2.53546276418555,-1.0408393681653962
4,9,7,9,-5,0,9,479,686,6.750000000000001,1.25,5.0,6.750000000000001,0.0,2.5,-1.118033988749895
4,9,8,9,-5,0,7,307,687,7.000000000000001,1.1111111111111112,5.0,7.000000000000001,0.0,2.4720661623652207,-1.18197542411033
4,9,9,9,-5,0,10,355,688,7.000000000000001,1.0,5.0,7.000000000000001,0.0,2.449489742783178,-1.2360679774997898
4,9,10,9,-5,0,9,337,689,7.272727272727273,0.9090909090909091,5.0,7.272727272727273,0.0,2.4308621740219887,-1.2826053882541975
4,10,1,9,-4,1,-3,612,690,0.0,5.0,5.0,0.0,0.0,3.1622776601683795,0.0
4,10,2,9,-4,0,8,371,691,1.0,5.0,3.333333333333334,0.0,-1.0,2.886751345948129,0.410326119149236
4,10,3,9,-4,0,10,1073,692,3.6666666666666665,3.333333333333334,3.333333333333334,2.6666666666666665,-1.0,2.5819888974716116,0.0
4,10,4,9,-4,0,9,674,693,5.5,2.5000000000000004,3.333333333333334,4.5,-1.0,2.41522945769824,-0.24460302826636404
4,10,5,9,-4,0,9,462,694,6.4,2.0,3.333333333333334,5.4,-1.0,2.3094010767585034,-0.41152829597745866
4,10,6,9,-4,0,10,485,695,7.0,1.6666666666666667,3.333333333333334,6.0,-1.0,2.23606797749979,-0.5347474096147482
4,10,7,9,-4,0,8,550,696,7.571428571428571,1.4285714285714286,3.333333333333334,6.571428571428571,-1.0,2.182178902359924,-0.6305132490161602
4,10,8,9,-4,0,10,372,697,7.75,1.25,3.333333333333334,6.75,-1.0,2.1408720964441885,-0.7077078696006589
4,10,9,9,-4,0,9,382,698,8.11111111111111,1.1111111111111112,3.333333333333334,7.111111111111111,-1.0,2.1081851067789197,-0.771649304961094
4,10,10,9,-4,0,10,619,699,8.3,1.0,3.333333333333334,7.3,-1.0,2.081665999466133,-0.8257418583505538
4,11,1,2,6,0,2,486,700,0.0,5.0,5.0,0.0,0.0,3.1622776601683795,0.0
4,11,2,2,6,1,4,353,701,0.6666666666666666,3.333333333333334,5.0,0.6666666666666666,0.0,2.886751345948129,-0.410326119149236
4,11,3,2,6,1,7,343,702,-0.6666666666666666,3.333333333333334,3.333333333333334,0.6666666666666666,1.3333333333333333,2.5819888974716116,0.0
4,11,4,2,6,1,6,414,703,-2.0833333333333335,3.333333333333334,2.5000000000000004,0.6666666666666666,2.75,2.41522945769824,0.24460302826636404
4,11,5,2,6,1,6,360,704,-2.733333333333334,3.333333333333334,2.0,0.6666666666666666,3.4000000000000004,2.3094010767585034,0.41152829597745866
4,11,6,2,6,1,5,400,705,-3.166666666666667,3.333333333333334,1.6666666666666667,0.6666666666666666,3.8333333333333335,2.23606797749979,0.5347474096147482
4,11,7,2,6,1,6,451,706,-3.3333333333333335,3.333333333333334,1.4285714285714286,0.6666666666666666,4.0,2.182178902359924,0.6305132490161602
4,11,8,2,6,1,7,412,707,-3.5833333333333335,3.333333333333334,1.25,0.6666666666666666,4.25,2.1408720964441885,0.7077078696006589
4,11,9,2,6,1,6,388,708,-3.888888888888889,3.333333333333334,1.1111111111111112,0.6666666666666666,4.555555555555555,2.1081851067789197,0.771649304961094
4,11,10,2,6,1,5,397,709,-4.033333333333333,3.333333333333334,1.0,0.6666666666666666,4.7,2.081665999466133,0.8257418583505538
4,12,1,13,-8,0,12,484,710,0.0,5.0,5.0,0.0,0.0,3.1622776601683795,0.0
4,12,2,13,-8,0,12,327,711,4.0,3.333333333333334,5.0,4.0,0.0,2.886751345948129,-0.410326119149236
4,12,3,13,-8,0,13,1013,712,6.0,2.5000000000000004,5.0,6.0,0.0,2.7386127875258306,-0.6549291474156
4,12,4,13,-8,0,14,296,713,7.4,2.0,5.0,7.4,0.0,2.6457513110645907,-0.8218544151266947
4,12,5,13,-8,0,14,883,714,8.5,1.6666666666666667,5.0,8.5,0.0,2.581988897471611,-0.9450735287639842
4,12,6,13,-8,0,13,596,715,9.285714285714286,1.4285714285714286,5.0,9.285714285714286,0.0,2.53546276418555,-1.0408393681653962
4,12,7,13,-8,0,13,443,716,9.75,1.25,5.0,9.75,0.0,2.5,-1.118033988749895
4,12,8,13,-8,0,13,437,717,10.11111111111111,1.1111111111111112,5.0,10.11111111111111,0.0,2.4720661623652207,-1.18197542411033
4,12,9,13,-8,0,12,824,718,10.4,1.0,5.0,10.4,0.0,2.449489742783178,-1.2360679774997898
4,12,10,13,-8,0,13,364,719,10.545454545454545,0.9090909090909091,5.0,10.545454545454545,0.0,2.4308621740219887,-1.2826053882541975
4,13,1,-4,2,0,-6,565,720,0.0,5.0,5.0,0.0,0.0,3.1622776601683795,0.0
4,13,2,-4,2,1,2,15,721,-2.0,3.333333333333334,5.0,-2.0,0.0,2.886751345948129,-0.410326119149236
4,13,3,-4,2,1,2,289,722,-2.6666666666666665,3.333333333333334,3.333333333333334,-2.0,0.6666666666666666,2.5819888974716116,0.0
4,13,4,-4,2,1,0,349,723,-3.0,3.333333333333334,2.5000000000000004,-2.0,1.0,2.41522945769824,0.24460302826636404
4,13,5,-4,2,1,2,378,724,-2.8,3.333333333333334,2.0,-2.0,0.7999999999999999,2.3094010767585034,0.41152829597745866
4,13,6,-4,2,0,-4,15,725,-3.0,3.333333333333334,1.6666666666666667,-2.0,1.0,2.23606797749979,0.5347474096147482
4,13,7,-4,2,1,3,432,726,-3.5,2.5000000000000004,1.6666666666666667,-2.5,1.0,2.041241452319315,0.29014438134838416
4,13,8,-4,2,1,1,761,727,-3.7857142857142856,2.5000000000000004,1.4285714285714286,-2.5,1.2857142857142858,1.9820624179302297,0.3859102207497962
4,13,9,-4,2,1,0,390,728,-3.75,2.5000000000000004,1.25,-2.5,1.25,1.9364916731037085,0.46310484133429486
4,13,10,-4,2,1,2,356,729,-3.611111111111111,2.5000000000000004,1.1111111111111112,-2.5,1.1111111111111112,1.90029237516523,0.5270462766947299
4,14,1,-1,17,1,18,579,730,0.0,5.0,5.0,0.0,0.0,3.1622776601683795,0.0
4,14,2,-1,17,1,16,304,731,-6.0,5.0,3.333333333333334,0.0,6.0,2.886751345948129,0.410326119149236
4,14,3,-1,17,1,17,395,732,-8.5,5.0,2.5000000000000004,0.0,8.5,2.7386127875258306,0.6549291474156
4,14,4,-1,17,1,17,495,733,-10.200000000000001,5.0,2.0,0.0,10.200000000000001,2.6457513110645907,0.8218544151266947
4,14,5,-1,17,1,17,387,734,-11.333333333333334,5.0,1.6666666666666667,0.0,11.333333333333334,2.581988897471611,0.9450735287639842
4,14,6,-1,17,1,17,1382,735,-12.142857142857144,5.0,1.4285714285714286,0.0,12.142857142857144,2.53546276418555,1.0408393681653962
4,14,7,-1,17,1,16,623,736,-12.750000000000002,5.0,1.25,0.0,12.750000000000002,2.5,1.118033988749895
4,14,8,-1,17,1,19,343,737,-13.111111111111112,5.0,1.1111111111111112,0.0,13.111111111111112,2.4720661623652207,1.18197542411033
4,14,9,-1,17,1,19,356,738,-13.700000000000001,5.0,1.0,0.0,13.700000000000001,2.449489742783178,1.2360679774997898
4,14,10,-1,17,1,18,9,739,-14.181818181818183,5.0,0.9090909090909091,0.0,14.181818181818183,2.4308621740219887,1.2826053882541975
4,15,1,0,-4,1,-3,521,740,0.0,5.0,5.0,0.0,0.0,3.1622776601683795,0.0
4,15,2,0,-4,0,-2,333,741,1.0,5.0,3.333333333333334,0.0,-1.0,2.886751345948129,0.410326119149236
4,15,3,0,-4,0,-1,856,742,0.33333333333333337,3.333333333333334,3.333333333333334,-0.6666666666666666,-1.0,2.5819888974716116,0.0
4,15,4,0,-4,0,-1,347,743,0.25,2.5000000000000004,3.333333333333334,-0.75,-1.0,2.41522945769824,-0.24460302826636404
4,15,5,0,-4,0,0,325,744,0.19999999999999996,2.0,3.333333333333334,-0.8,-1.0,2.3094010767585034,-0.41152829597745866
4,15,6,0,-4,0,-1,334,745,0.33333333333333326,1.6666666666666667,3.333333333333334,-0.6666666666666667,-1.0,2.23606797749979,-0.5347474096147482
4,15,7,0,-4,0,0,1055,746,0.2857142857142856,1.4285714285714286,3.333333333333334,-0.7142857142857144,-1.0,2.182178902359924,-0.6305132490161602
4,15,8,0,-4,0,1,330,747,0.3749999999999999,1.25,3.333333333333334,-0.6250000000000001,-1.0,2.1408720964441885,-0.7077078696006589
4,15,9,0,-4,0,-1,350,748,0.5555555555555555,1.1111111111111112,3.333333333333334,-0.44444444444444453,-1.0,2.1081851067789197,-0.771649304961094
4,15,10,0,-4,1,-5,375,749,0.4999999999999999,1.0,3.333333333333334,-0.5000000000000001,-1.0,2.081665999466133,-0.8257418583505538
4,16,1,24,10,0,23,667,750,0.0,5.0,5.0,0.0,0.0,3.1622776601683795,0.0
4,16,2,24,10,0,25,346,751,7.666666666666666,3.333333333333334,5.0,7.666666666666666,0.0,2.886751345948129,-0.410326119149236
4,16,3,24,10,0,24,355,752,12.0,2.5000000000000004,5.0,12.0,0.0,2.7386127875258306,-0.6549291474156
4,16,4,24,10,0,23,1130,753,14.4,2.0,5.0,14.4,0.0,2.6457513110645907,-0.8218544151266947
4,16,5,24,10,0,24,311,754,15.833333333333334,1.6666666666666667,5.0,15.833333333333334,0.0,2.581988897471611,-0.9450735287639842
4,16,6,24,10,0,25,369,755,17.0,1.4285714285714286,5.0,17.0,0.0,2.53546276418555,-1.0408393681653962
4,16,7,24,10,0,24,376,756,18.0,1.25,5.0,18.0,0.0,2.5,-1.118033988749895
4,16,8,24,10,0,23,374,757,18.666666666666668,1.1111111111111112,5.0,18.666666666666668,0.0,2.4720661623652207,-1.18197542411033
4,16,9,24,10,0,23,404,758,19.1,1.0,5.0,19.1,0.0,2.449489742783178,-1.2360679774997898
4,16,10,24,10,0,23,359,759,19.454545454545457,0.9090909090909091,5.0,19.454545454545457,0.0,2.4308621740219887,-1.2826053882541975
4,17,1,2,19,0,3,523,760,0.0,5.0,5.0,0.0,0.0,3.1622776601683795,0.0
4,17,2,2,19,1,20,351,761,1.0,3.333333333333334,5.0,1.0,0.0,2.886751345948129,-0.410326119149236
4,17,3,2,19,1,21,719,762,-5.666666666666666,3.333333333333334,3.333333333333334,1.0,6.666666666666666,2.5819888974716116,0.0
4,17,4,2,19,1,19,364,763,-9.25,3.333333333333334,2.5000000000000004,1.0,10.25,2.41522945769824,0.24460302826636404
4,17,5,2,19,1,17,1057,764,-11.0,3.333333333333334,2.0,1.0,12.0,2.3094010767585034,0.41152829597745866
4,17,6,2,19,1,20,359,765,-11.833333333333334,3.333333333333334,1.6666666666666667,1.0,12.833333333333334,2.23606797749979,0.5347474096147482
4,17,7,2,19,1,21,360,766,-12.857142857142858,3.333333333333334,1.4285714285714286,1.0,13.857142857142858,2.182178902359924,0.6305132490161602
4,17,8,2,19,1,19,364,767,-13.75,3.333333333333334,1.25,1.0,14.75,2.1408720964441885,0.7077078696006589
4,17,9,2,19,1,19,407,768,-14.222222222222221,3.333333333333334,1.1111111111111112,1.0,15.222222222222221,2.1081851067789197,0.771649304961094
4,17,10,2,19,1,20,386,769,-14.6,3.333333333333334,1.0,1.0,15.6,2.081665999466133,0.8257418583505538
4,18,1,-6,-16,1,-15,839,770,0.0,5.0,5.0,0.0,0.0,3.1622776601683795,0.0
4,18,2,-6,-16,0,-6,352,771,5.0,5.0,3.333333333333334,0.0,-5.0,2.886751345948129,0.410326119149236
4,18,3,-6,-16,0,-6,369,772,3.0,3.333333333333334,3.333333333333334,-2.0,-5.0,2.5819888974716116,0.0
4,18,4,-6,-16,0,-5,328,773,2.0,2.5000000000000004,3.333333333333334,-3.0,-5.0,2.41522945769824,-0.24460302826636404
4,18,5,-6,-16,0,-6,1065,774,1.6,2.0,3.333333333333334,-3.4,-5.0,2.3094010767585034,-0.41152829597745866
4,18,6,-6,-16,0,-7,319,775,1.166666666666667,1.6666666666666667,3.333333333333334,-3.833333333333333,-5.0,2.23606797749979,-0.5347474096147482
4,18,7,-6,-16,0,-6,335,776,0.7142857142857144,1.4285714285714286,3.333333333333334,-4.285714285714286,-5.0,2.182178902359924,-0.6305132490161602
4,18,8,-6,-16,0,-6,361,777,0.5,1.25,3.333333333333334,-4.5,-5.0,2.1408720964441885,-0.7077078696006589
4,18,9,-6,-16,0,-6,596,778,0.33333333333333304,1.1111111111111112,3.333333333333334,-4.666666666666667,-5.0,2.1081851067789197,-0.771649304961094
4,18,10,-6,-16,0,-7,406,779,0.1999999999999993,1.0,3.333333333333334,-4.800000000000001,-5.0,2.081665999466133,-0.8257418583505538
4,19,1,6,-16,0,5,692,780,0.0,5.0,5.0,0.0,0.0,3.1622776601683795,0.0
4,19,2,6,-16,1,-18,1247,781,1.6666666666666665,3.333333333333334,5.0,1.6666666666666665,0.0,2.886751345948129,-0.410326119149236
4,19,3,6,-16,0,5,2499,782,7.666666666666666,3.333333333333334,3.333333333333334,1.6666666666666665,-6.0,2.5819888974716116,0.0
4,19,4,6,-16,0,7,589,783,8.5,2.5000000000000004,3.333333333333334,2.5,-6.0,2.41522945769824,-0.24460302826636404
4,19,5,6,-16,0,7,416,784,9.4,2.0,3.333333333333334,3.4000000000000004,-6.0,2.3094010767585034,-0.41152829597745866
4,19,6,6,-16,0,6,353,785,10.0,1.6666666666666667,3.333333333333334,4.0,-6.0,2.23606797749979,-0.5347474096147482
4,19,7,6,-16,0,7,350,786,10.285714285714285,1.4285714285714286,3.333333333333334,4.285714285714286,-6.0,2.182178902359924,-0.6305132490161602
4,19,8,6,-16,0,6,362,787,10.625,1.25,3.333333333333334,4.625,-6.0,2.1408720964441885,-0.7077078696006589
4,19,9,6,-16,0,6,350,788,10.777777777777779,1.1111111111111112,3.333333333333334,4.777777777777778,-6.0,2.1081851067789197,-0.771649304961094
4,19,10,6,-16,0,5,336,789,10.9,1.0,3.333333333333334,4.9,-6.0,2.081665999466133,-0.8257418583505538
4,20,1,21,-3,0,22,552,790,0.0,5.0,5.0,0.0,0.0,3.1622776601683795,0.0
4,20,2,21,-3,0,21,868,791,7.333333333333333,3.333333333333334,5.0,7.333333333333333,0.0,2.886751345948129,-0.410326119149236
4,20,3,21,-3,0,23,375,792,10.75,2.5000000000000004,5.0,10.75,0.0,2.7386127875258306,-0.6549291474156
4,20,4,21,-3,0,21,848,793,13.200000000000001,2.0,5.0,13.200000000000001,0.0,2.6457513110645907,-0.8218544151266947
4,20,5,21,-3,0,19,420,794,14.5,1.6666666666666667,5.0,14.5,0.0,2.581988897471611,-0.9450735287639842
4,20,6,21,-3,0,22,375,795,15.142857142857142,1.4285714285714286,5.0,15.142857142857142,0.0,2.53546276418555,-1.0408393681653962
4,20,7,21,-3,0,21,387,796,16.0,1.25,5.0,16.0,0.0,2.5,-1.118033988749895
4,20,8,21,-3,0,19,388,797,16.555555555555557,1.1111111111111112,5.0,16.555555555555557,0.0,2.4720661623652207,-1.18197542411033
4,20,9,21,-3,0,21,336,798,16.8,1.0,5.0,16.8,0.0,2.449489742783178,-1.2360679774997898
4,20,10,21,-3,0,21,346,799,17.181818181818183,0.9090909090909091,5.0,17.181818181818183,0.0,2.4308621740219887,-1.2826053882541975
5,1,1,12,2,0,12,2600,800,0.0,5.0,5.0,0.0,0.0,3.1622776601683795,0.0
5,1,2,12,2,0,11,601,801,4.0,3.333333333333334,5.0,4.0,0.0,2.886751345948129,-0.410326119149236
5,1,3,12,2,0,13,509,802,5.75,2.5000000000000004,5.0,5.75,0.0,2.7386127875258306,-0.6549291474156
5,1,4,12,2,0,12,562,803,7.2,2.0,5.0,7.2,0.0,2.6457513110645907,-0.8218544151266947
5,1,5,12,2,0,12,605,804,8.0,1.6666666666666667,5.0,8.0,0.0,2.581988897471611,-0.9450735287639842
5,1,6,12,2,0,12,648,805,8.571428571428571,1.4285714285714286,5.0,8.571428571428571,0.0,2.53546276418555,-1.0408393681653962
5,1,7,12,2,0,11,510,806,9.0,1.25,5.0,9.0,0.0,2.5,-1.118033988749895
5,1,8,12,2,1,2,480,807,9.222222222222221,1.1111111111111112,5.0,9.222222222222221,0.0,2.4720661623652207,-1.18197542411033
5,1,9,12,2,0,13,439,808,8.555555555555555,1.1111111111111112,3.333333333333334,9.222222222222221,0.6666666666666666,2.1081851067789197,-0.771649304961094
5,1,10,12,2,0,13,549,809,8.933333333333334,1.0,3.333333333333334,9.6,0.6666666666666666,2.081665999466133,-0.8257418583505538
5,2,1,4,14,1,14,943,810,0.0,5.0,5.0,0.0,0.0,3.1622776601683795,0.0
5,2,2,4,14,1,14,402,811,-4.666666666666666,5.0,3.333333333333334,0.0,4.666666666666666,2.886751345948129,0.410326119149236
5,2,3,4,14,1,14,435,812,-7.0,5.0,2.5000000000000004,0.0,7.0,2.7386127875258306,0.6549291474156
5,2,4,4,14,0,4,749,813,-8.4,5.0,2.0,0.0,8.4,2.6457513110645907,0.8218544151266947
5,2,5,4,14,1,14,342,814,-7.066666666666667,3.333333333333334,2.0,1.3333333333333333,8.4,2.3094010767585034,0.41152829597745866
5,2,6,4,14,1,14,434,815,-8.0,3.333333333333334,1.6666666666666667,1.3333333333333333,9.333333333333334,2.23606797749979,0.5347474096147482
5,2,7,4,14,1,14,449,816,-8.666666666666666,3.333333333333334,1.4285714285714286,1.3333333333333333,10.0,2.182178902359924,0.6305132490161602
5,2,8,4,14,1,15,543,817,-9.166666666666666,3.333333333333334,1.25,1.3333333333333333,10.5,2.1408720964441885,0.7077078696006589
5,2,9,4,14,1,14,677,818,-9.666666666666666,3.333333333333334,1.1111111111111112,1.3333333333333333,11.0,2.1081851067789197,0.771649304961094
5,2,10,4,14,1,14,485,819,-9.966666666666667,3.333333333333334,1.0,1.3333333333333333,11.3,2.081665999466133,0.8257418583505538
5,3,1,-20,-7,1,-5,616,820,0.0,5.0,5.0,0.0,0.0,3.1622776601683795,0.0
5,3,2,-20,-7,0,-18,1311,821,1.6666666666666665,5.0,3.333333333333334,0.0,-1.6666666666666665,2.886751345948129,0.410326119149236
5,3,3,-20,-7,1,-7,540,822,-4.333333333333334,3.333333333333334,3.333333333333334,-6.0,-1.6666666666666665,2.5819888974716116,0.0
5,3,4,-20,-7,1,-7,359,823,-3.0,3.333333333333334,2.5000000000000004,-6.0,-3.0,2.41522945769824,0.24460302826636404
5,3,5,-20,-7,1,-6,408,824,-2.1999999999999997,3.333333333333334,2.0,-6.0,-3.8000000000000003,2.3094010767585034,0.41152829597745866
5,3,6,-20,-7,1,-6,420,825,-1.833333333333333,3.333333333333334,1.6666666666666667,-6.0,-4.166666666666667,2.23606797749979,0.5347474096147482
5,3,7,-20,-7,0,-19,377,826,-1.5714285714285712,3.333333333333334,1.4285714285714286,-6.0,-4.428571428571429,2.182178902359924,0.6305132490161602
5,3,8,-20,-7,1,-7,494,827,-4.821428571428571,2.5000000000000004,1.4285714285714286,-9.25,-4.428571428571429,1.9820624179302297,0.3859102207497962
5,3,9,-20,-7,1,-8,443,828,-4.5,2.5000000000000004,1.25,-9.25,-4.75,1.9364916731037085,0.46310484133429486
5,3,10,-20,-7,1,-6,456,829,-4.138888888888889,2.5000000000000004,1.1111111111111112,-9.25,-5.111111111111111,1.90029237516523,0.5270462766947299
5,4,1,-15,-4,1,-4,600,830,0.0,5.0,5.0,0.0,0.0,3.1622776601683795,0.0
5,4,2,-15,-4,0,-13,353,831,1.3333333333333333,5.0,3.333333333333334,0.0,-1.3333333333333333,2.886751345948129,0.410326119149236
5,4,3,-15,-4,1,-5,512,832,-3.0,3.333333333333334,3.333333333333334,-4.333333333333333,-1.3333333333333333,2.5819888974716116,0.0
5,4,4,-15,-4,1,-4,408,833,-2.083333333333333,3.333333333333334,2.5000000000000004,-4.333333333333333,-2.25,2.41522945769824,0.24460302826636404
5,4,5,-15,-4,1,-6,409,834,-1.733333333333333,3.333333333333334,2.0,-4.333333333333333,-2.6,2.3094010767585034,0.41152829597745866
